pos,corr_resp,trials.thisRepN,trials.thisTrialN,trials.thisN,trials.thisIndex,trials_2.thisRepN,trials_2.thisTrialN,trials_2.thisN,trials_2.thisIndex,thisRow.t,notes,trial.started,fixation.started,line1.started,line2.started,line3.started,line4.started,fixation.stopped,probe.started,key_resp.started,trial.stopped,key_resp.keys,key_resp.corr,key_resp.rt,key_resp.duration,participant,session,date,expName,psychopyVersion,frameRate,expStart,
-50,x,0,0,0,0,,,,,0.012966799999958312,,0.00968719999991663,0.012966799999958312,1.005639100000053,1.005639100000053,1.005639100000053,1.005639100000053,1.0225183000000015,2.0058632000000216,2.0058632000000216,2.7003947000000608,x,1,0.6194203000000016,None,01,001,2024-10-16_22h57.47.638,PSY310 Task4,2024.1.5,None,2024-10-16 22h58.08.227879 +0530,
150,v,0,1,1,1,,,,,2.705928900000117,,2.7033026999999947,2.705928900000117,3.705470099999957,3.705470099999957,3.705470099999957,3.705470099999957,3.705470099999957,4.70538119999992,4.70538119999992,5.456129899999951,v,1,0.7446102999999766,None,01,001,2024-10-16_22h57.47.638,PSY310 Task4,2024.1.5,None,2024-10-16 22h58.08.227879 +0530,
50,c,0,2,2,2,,,,,5.472042000000101,,5.456857899999932,5.472042000000101,6.472052500000018,6.472052500000018,6.472052500000018,6.472052500000018,6.472052500000018,7.471966199999997,7.471966199999997,8.256038799999942,c,1,0.7733373000000938,None,01,001,2024-10-16_22h57.47.638,PSY310 Task4,2024.1.5,None,2024-10-16 22h58.08.227879 +0530,
-150,z,0,3,3,3,,,,,8.271903699999939,,8.256832499999973,8.271903699999939,9.272045899999966,9.272045899999966,9.272045899999966,9.272045899999966,9.272045899999966,10.271840099999963,10.271840099999963,10.856073800000104,z,1,0.5828012999998009,None,01,001,2024-10-16_22h57.47.638,PSY310 Task4,2024.1.5,None,2024-10-16 22h58.08.227879 +0530,
-50,x,1,0,4,0,,,,,10.871929500000078,,10.85757620000004,10.871929500000078,11.871612500000083,11.871612500000083,11.871612500000083,11.871612500000083,11.871612500000083,12.871563100000003,12.871563100000003,13.372529900000018,x,1,0.4851222999998299,None,01,001,2024-10-16_22h57.47.638,PSY310 Task4,2024.1.5,None,2024-10-16 22h58.08.227879 +0530,
150,v,1,1,5,1,,,,,13.388345900000104,,13.37328720000005,13.388345900000104,14.388125799999898,14.388125799999898,14.388125799999898,14.388125799999898,14.388125799999898,15.388280699999996,15.388280699999996,16.088686999999936,v,1,0.683596899999884,None,01,001,2024-10-16_22h57.47.638,PSY310 Task4,2024.1.5,None,2024-10-16 22h58.08.227879 +0530,
50,c,1,2,6,2,,,,,16.104638000000023,,16.089476599999898,16.104638000000023,17.10458730000005,17.10458730000005,17.10458730000005,17.10458730000005,17.10458730000005,18.10446920000004,18.10446920000004,18.85555240000008,c,1,0.7452790999998342,None,01,001,2024-10-16_22h57.47.638,PSY310 Task4,2024.1.5,None,2024-10-16 22h58.08.227879 +0530,
-150,z,1,3,7,3,,,,,18.87110000000007,,18.856306899999936,18.87110000000007,19.87108860000012,19.87108860000012,19.87108860000012,19.87108860000012,19.87108860000012,20.87105560000009,20.87105560000009,21.47188600000004,z,1,0.5904270000000906,None,01,001,2024-10-16_22h57.47.638,PSY310 Task4,2024.1.5,None,2024-10-16 22h58.08.227879 +0530,
-50,x,2,0,8,0,,,,,21.487621900000022,,21.472671600000012,21.487621900000022,22.487664900000027,22.487664900000027,22.487664900000027,22.487664900000027,22.487664900000027,23.487484499999937,23.487484499999937,23.92187009999998,x,1,0.4335392000000411,None,01,001,2024-10-16_22h57.47.638,PSY310 Task4,2024.1.5,None,2024-10-16 22h58.08.227879 +0530,
150,v,2,1,9,1,,,,,23.937448500000073,,23.92265199999997,23.937448500000073,24.937487200000078,24.937487200000078,24.937487200000078,24.937487200000078,24.937487200000078,25.9373971,25.9373971,26.57161760000008,v,1,0.6306798999999046,None,01,001,2024-10-16_22h57.47.638,PSY310 Task4,2024.1.5,None,2024-10-16 22h58.08.227879 +0530,
50,c,2,2,10,2,,,,,26.587390899999946,,26.573089900000014,26.587390899999946,27.587340799999993,27.587340799999993,27.587340799999993,27.587340799999993,27.587340799999993,28.587211799999977,28.587211799999977,29.53786070000001,c,1,0.9419800999999097,None,01,001,2024-10-16_22h57.47.638,PSY310 Task4,2024.1.5,None,2024-10-16 22h58.08.227879 +0530,
-150,z,2,3,11,3,,,,,29.55373529999997,,29.5386575,29.55373529999997,30.553723499999933,30.553723499999933,30.553723499999933,30.553723499999933,30.553723499999933,31.55431479999993,31.55431479999993,32.07105780000006,z,1,0.501183200000014,None,01,001,2024-10-16_22h57.47.638,PSY310 Task4,2024.1.5,None,2024-10-16 22h58.08.227879 +0530,
-50,x,3,0,12,0,,,,,32.08687209999994,,32.07180480000011,32.08687209999994,33.08730209999999,33.08730209999999,33.08730209999999,33.08730209999999,33.08730209999999,34.08706409999991,34.08706409999991,34.63777260000006,x,1,0.5493039999998928,None,01,001,2024-10-16_22h57.47.638,PSY310 Task4,2024.1.5,None,2024-10-16 22h58.08.227879 +0530,
150,v,3,1,13,1,,,,,34.653561699999955,,34.638534200000095,34.653561699999955,35.65352639999992,35.65352639999992,35.65352639999992,35.65352639999992,35.65352639999992,36.65348990000007,36.65348990000007,37.28779920000011,v,1,0.6247094999998808,None,01,001,2024-10-16_22h57.47.638,PSY310 Task4,2024.1.5,None,2024-10-16 22h58.08.227879 +0530,
50,c,3,2,14,2,,,,,37.30368580000004,,37.28939319999995,37.30368580000004,38.303271700000096,38.303271700000096,38.303271700000096,38.303271700000096,38.303271700000096,39.30319950000012,39.30319950000012,40.15401229999998,c,1,0.8386894000000211,None,01,001,2024-10-16_22h57.47.638,PSY310 Task4,2024.1.5,None,2024-10-16 22h58.08.227879 +0530,
-150,z,3,3,15,3,,,,,40.169887100000096,,40.154808600000024,40.169887100000096,41.170044499999904,41.170044499999904,41.170044499999904,41.170044499999904,41.170044499999904,42.17013070000007,42.17013070000007,42.6041146,z,1,0.4260226999999759,None,01,001,2024-10-16_22h57.47.638,PSY310 Task4,2024.1.5,None,2024-10-16 22h58.08.227879 +0530,
-50,x,4,0,16,0,,,,,42.61964899999998,,42.60485640000002,42.61964899999998,43.61983699999996,43.61983699999996,43.61983699999996,43.61983699999996,43.61983699999996,44.619576800000004,44.619576800000004,45.23701170000004,x,1,0.6074969000001147,None,01,001,2024-10-16_22h57.47.638,PSY310 Task4,2024.1.5,None,2024-10-16 22h58.08.227879 +0530,
150,v,4,1,17,1,,,,,45.2528827000001,,45.237880099999984,45.2528827000001,46.25278849999995,46.25278849999995,46.25278849999995,46.25278849999995,46.25278849999995,47.25276650000001,47.25276650000001,47.920381500000076,v,1,0.6512457999999697,None,01,001,2024-10-16_22h57.47.638,PSY310 Task4,2024.1.5,None,2024-10-16 22h58.08.227879 +0530,
50,c,4,2,18,2,,,,,47.9361543,,47.92142960000001,47.9361543,48.9361042999999,48.9361042999999,48.9361042999999,48.9361042999999,48.9361042999999,49.9360079999999,49.9360079999999,50.52015819999997,c,1,0.5722728999999163,None,01,001,2024-10-16_22h57.47.638,PSY310 Task4,2024.1.5,None,2024-10-16 22h58.08.227879 +0530,
-150,z,4,3,19,3,,,,,50.536121200000025,,50.521019000000024,50.536121200000025,51.535981799999945,51.535981799999945,51.535981799999945,51.535981799999945,51.535981799999945,52.5359069000001,52.5359069000001,53.087124899999935,z,1,0.5474965000000793,None,01,001,2024-10-16_22h57.47.638,PSY310 Task4,2024.1.5,None,2024-10-16 22h58.08.227879 +0530,
-50,x,5,0,20,0,,,,,53.10301090000007,,53.08802190000006,53.10301090000007,54.10280880000005,54.10280880000005,54.10280880000005,54.10280880000005,54.10280880000005,55.10216910000008,55.10216910000008,55.7528327,x,1,0.6368032000000312,None,01,001,2024-10-16_22h57.47.638,PSY310 Task4,2024.1.5,None,2024-10-16 22h58.08.227879 +0530,
150,v,5,1,21,1,,,,,55.76882249999994,,55.75357340000005,55.76882249999994,56.76878220000003,56.76878220000003,56.76878220000003,56.76878220000003,56.76878220000003,57.768852700000025,57.768852700000025,58.43641759999991,v,1,0.665621099999953,None,01,001,2024-10-16_22h57.47.638,PSY310 Task4,2024.1.5,None,2024-10-16 22h58.08.227879 +0530,
50,c,5,2,22,2,,,,,58.451966900000116,,58.43791370000008,58.451966900000116,59.451895899999954,59.451895899999954,59.451895899999954,59.451895899999954,59.451895899999954,60.45184880000011,60.45184880000011,61.03574759999992,c,1,0.574828000000025,None,01,001,2024-10-16_22h57.47.638,PSY310 Task4,2024.1.5,None,2024-10-16 22h58.08.227879 +0530,
-150,z,5,3,23,3,,,,,61.05191839999998,,61.03648440000006,61.05191839999998,62.03581239999994,62.03581239999994,62.03581239999994,62.03581239999994,62.05212770000003,63.05175600000007,63.05175600000007,64.11927760000003,z,1,1.0664171999999326,None,01,001,2024-10-16_22h57.47.638,PSY310 Task4,2024.1.5,None,2024-10-16 22h58.08.227879 +0530,
-50,x,6,0,24,0,,,,,64.13493700000004,,64.1200229000001,64.13493700000004,65.13497540000003,65.13497540000003,65.13497540000003,65.13497540000003,65.13497540000003,66.13482019999992,66.13482019999992,66.76883320000002,x,1,0.6211754000000838,None,01,001,2024-10-16_22h57.47.638,PSY310 Task4,2024.1.5,None,2024-10-16 22h58.08.227879 +0530,
150,v,6,1,25,1,,,,,66.78482230000009,,66.76960329999997,66.78482230000009,67.78467909999995,67.78467909999995,67.78467909999995,67.78467909999995,67.78467909999995,68.76820079999993,68.76820079999993,69.36863139999991,v,1,0.5921995000001061,None,01,001,2024-10-16_22h57.47.638,PSY310 Task4,2024.1.5,None,2024-10-16 22h58.08.227879 +0530,
50,c,6,2,26,2,,,,,69.3845996,,69.3693811999999,69.3845996,70.38473539999995,70.38473539999995,70.38473539999995,70.38473539999995,70.38473539999995,71.38436730000012,71.38436730000012,71.96886010000003,c,1,0.5703582000001006,None,01,001,2024-10-16_22h57.47.638,PSY310 Task4,2024.1.5,None,2024-10-16 22h58.08.227879 +0530,
-150,z,6,3,27,3,,,,,71.98447669999996,,71.96983169999999,71.98447669999996,72.98441449999996,72.98441449999996,72.98441449999996,72.98441449999996,72.98441449999996,73.98445689999994,73.98445689999994,74.60217340000008,z,1,0.6098472999999558,None,01,001,2024-10-16_22h57.47.638,PSY310 Task4,2024.1.5,None,2024-10-16 22h58.08.227879 +0530,
-50,x,7,0,28,0,,,,,74.61762219999991,,74.60320539999998,74.61762219999991,75.61763889999997,75.61763889999997,75.61763889999997,75.61763889999997,75.61763889999997,76.61762109999995,76.61762109999995,77.20161159999998,x,1,0.5696013000001585,None,01,001,2024-10-16_22h57.47.638,PSY310 Task4,2024.1.5,None,2024-10-16 22h58.08.227879 +0530,
150,v,7,1,29,1,,,,,77.21777700000007,,77.20302459999994,77.21777700000007,78.21757079999998,78.21757079999998,78.21757079999998,78.21757079999998,78.21757079999998,79.21731670000008,79.21731670000008,80.00179539999999,v,1,0.7722077000000809,None,01,001,2024-10-16_22h57.47.638,PSY310 Task4,2024.1.5,None,2024-10-16 22h58.08.227879 +0530,
50,c,7,2,30,2,,,,,80.01743579999993,,80.00260099999991,80.01743579999993,81.0175698999999,81.0175698999999,81.0175698999999,81.0175698999999,81.0175698999999,82.01727310000001,82.01727310000001,82.51911519999999,c,1,0.4945208999999977,None,01,001,2024-10-16_22h57.47.638,PSY310 Task4,2024.1.5,None,2024-10-16 22h58.08.227879 +0530,
-150,z,7,3,31,3,,,,,82.53402469999992,,82.52106870000011,82.53402469999992,83.53426160000004,83.53426160000004,83.53426160000004,83.53426160000004,83.53426160000004,84.53392460000009,84.53392460000009,85.10141180000005,z,1,0.5663695000000644,None,01,001,2024-10-16_22h57.47.638,PSY310 Task4,2024.1.5,None,2024-10-16 22h58.08.227879 +0530,
-50,x,8,0,32,0,,,,,85.11723540000003,,85.10296710000011,85.11723540000003,86.11692960000005,86.11692960000005,86.11692960000005,86.11692960000005,86.11692960000005,87.11699440000007,87.11699440000007,87.63430119999998,x,1,0.5104696000000786,None,01,001,2024-10-16_22h57.47.638,PSY310 Task4,2024.1.5,None,2024-10-16 22h58.08.227879 +0530,
150,v,8,1,33,1,,,,,87.65002789999994,,87.63507290000007,87.65002789999994,88.65008499999999,88.65008499999999,88.65008499999999,88.65008499999999,88.65008499999999,89.6500665000001,89.6500665000001,90.1507924,v,1,0.48622869999985596,None,01,001,2024-10-16_22h57.47.638,PSY310 Task4,2024.1.5,None,2024-10-16 22h58.08.227879 +0530,
50,c,8,2,34,2,,,,,90.16672339999991,,90.15153370000007,90.16672339999991,91.16658170000005,91.16658170000005,91.16658170000005,91.16658170000005,91.16658170000005,92.16665020000005,92.16665020000005,92.91735889999995,c,1,0.7388416000001143,None,01,001,2024-10-16_22h57.47.638,PSY310 Task4,2024.1.5,None,2024-10-16 22h58.08.227879 +0530,
-150,z,8,3,35,3,,,,,92.93318399999998,,92.91812129999994,92.93318399999998,93.93315920000009,93.93315920000009,93.93315920000009,93.93315920000009,93.93315920000009,94.93318649999992,94.93318649999992,95.65038460000005,z,1,0.7039037000001827,None,01,001,2024-10-16_22h57.47.638,PSY310 Task4,2024.1.5,None,2024-10-16 22h58.08.227879 +0530,
-50,x,9,0,36,0,,,,,95.66639250000003,,95.65115209999999,95.66639250000003,96.66625040000008,96.66625040000008,96.66625040000008,96.66625040000008,96.66625040000008,97.66628889999993,97.66628889999993,98.35030439999991,x,1,0.6819755000001351,None,01,001,2024-10-16_22h57.47.638,PSY310 Task4,2024.1.5,None,2024-10-16 22h58.08.227879 +0530,
150,v,9,1,37,1,,,,,98.3661975,,98.35108100000002,98.3661975,99.36612760000003,99.36612760000003,99.36612760000003,99.36612760000003,99.36612760000003,100.36614239999994,100.36614239999994,100.83349599999997,v,1,0.459467899999936,None,01,001,2024-10-16_22h57.47.638,PSY310 Task4,2024.1.5,None,2024-10-16 22h58.08.227879 +0530,
50,c,9,2,38,2,,,,,100.84926530000007,,100.8342454000001,100.84926530000007,101.84929660000012,101.84929660000012,101.84929660000012,101.84929660000012,101.84929660000012,102.84940819999997,102.84940819999997,103.63341220000007,c,1,0.7832590000000437,None,01,001,2024-10-16_22h57.47.638,PSY310 Task4,2024.1.5,None,2024-10-16 22h58.08.227879 +0530,
-150,z,9,3,39,3,,,,,103.64925410000001,,103.63416860000007,103.64925410000001,104.64918489999991,104.64918489999991,104.64918489999991,104.64918489999991,104.64918489999991,105.6494255,105.6494255,106.25020139999992,z,1,0.5855736999999408,None,01,001,2024-10-16_22h57.47.638,PSY310 Task4,2024.1.5,None,2024-10-16 22h58.08.227879 +0530,
-50,x,10,0,40,0,,,,,106.26575180000009,,106.25119790000008,106.26575180000009,107.2655686999999,107.2655686999999,107.2655686999999,107.2655686999999,107.2655686999999,108.26581080000005,108.26581080000005,108.83340780000003,x,1,0.5656461999999465,None,01,001,2024-10-16_22h57.47.638,PSY310 Task4,2024.1.5,None,2024-10-16 22h58.08.227879 +0530,
150,v,10,1,41,1,,,,,108.84901820000005,,108.83428219999996,108.84901820000005,109.84877789999996,109.84877789999996,109.84877789999996,109.84877789999996,109.84877789999996,110.84873149999999,110.84873149999999,111.61609920000001,v,1,0.7559699999999339,None,01,001,2024-10-16_22h57.47.638,PSY310 Task4,2024.1.5,None,2024-10-16 22h58.08.227879 +0530,
50,c,10,2,42,2,,,,,111.63207020000004,,111.61685560000001,111.63207020000004,112.63202030000002,112.63202030000002,112.63202030000002,112.63202030000002,112.63202030000002,113.63196390000007,113.63196390000007,114.3668118999999,c,1,0.727904499999795,None,01,001,2024-10-16_22h57.47.638,PSY310 Task4,2024.1.5,None,2024-10-16 22h58.08.227879 +0530,
-150,z,10,3,43,3,,,,,114.38195440000004,,114.36832509999999,114.38195440000004,115.38179560000003,115.38179560000003,115.38179560000003,115.38179560000003,115.38179560000003,116.38172110000005,116.38172110000005,116.88273679999998,z,1,0.49815669999998136,None,01,001,2024-10-16_22h57.47.638,PSY310 Task4,2024.1.5,None,2024-10-16 22h58.08.227879 +0530,
-50,x,11,0,44,0,,,,,116.8985196000001,,116.88354170000002,116.8985196000001,117.89823619999993,117.89823619999993,117.89823619999993,117.89823619999993,117.89823619999993,118.89852560000008,118.89852560000008,119.4656867000001,x,1,0.5647130999998353,None,01,001,2024-10-16_22h57.47.638,PSY310 Task4,2024.1.5,None,2024-10-16 22h58.08.227879 +0530,
150,v,11,1,45,1,,,,,119.48182700000007,,119.46644689999994,119.48182700000007,120.4649687000001,120.4649687000001,120.4649687000001,120.4649687000001,120.4816707,121.46509549999996,121.46509549999996,121.99916660000008,v,1,0.5181599999998525,None,01,001,2024-10-16_22h57.47.638,PSY310 Task4,2024.1.5,None,2024-10-16 22h58.08.227879 +0530,
50,c,11,2,46,2,,,,,122.01473460000011,,122.0001198,122.01473460000011,123.01480770000012,123.01480770000012,123.01480770000012,123.01480770000012,123.01480770000012,124.01483630000007,124.01483630000007,124.73225389999993,c,1,0.7149177999999665,None,01,001,2024-10-16_22h57.47.638,PSY310 Task4,2024.1.5,None,2024-10-16 22h58.08.227879 +0530,
-150,z,11,3,47,3,,,,,124.74810470000011,,124.7331200000001,124.74810470000011,125.74774150000007,125.74774150000007,125.74774150000007,125.74774150000007,125.74774150000007,126.74778149999997,126.74778149999997,127.28190300000006,z,1,0.5282137000001512,None,01,001,2024-10-16_22h57.47.638,PSY310 Task4,2024.1.5,None,2024-10-16 22h58.08.227879 +0530,
-50,x,12,0,48,0,,,,,127.29763550000007,,127.2826222000001,127.29763550000007,128.29776530000004,128.29776530000004,128.29776530000004,128.29776530000004,128.29776530000004,129.2975922999999,129.2975922999999,130.4658101,x,1,1.1673161999999593,None,01,001,2024-10-16_22h57.47.638,PSY310 Task4,2024.1.5,None,2024-10-16 22h58.08.227879 +0530,
150,v,12,1,49,1,,,,,130.48110969999993,,130.46666849999997,130.48110969999993,131.48077560000002,131.48077560000002,131.48077560000002,131.48077560000002,131.48077560000002,132.4807854999999,132.4807854999999,133.18151089999992,v,1,0.6948087000000669,None,01,001,2024-10-16_22h57.47.638,PSY310 Task4,2024.1.5,None,2024-10-16 22h58.08.227879 +0530,
50,c,12,2,50,2,,,,,133.19754620000003,,133.18261869999992,133.19754620000003,134.19739260000006,134.19739260000006,134.19739260000006,134.19739260000006,134.19739260000006,135.19717659999992,135.19717659999992,135.79821489999995,c,1,0.6001074000000699,None,01,001,2024-10-16_22h57.47.638,PSY310 Task4,2024.1.5,None,2024-10-16 22h58.08.227879 +0530,
-150,z,12,3,51,3,,,,,135.81402909999997,,135.79912259999992,135.81402909999997,136.81378470000004,136.81378470000004,136.81378470000004,136.81378470000004,136.81378470000004,137.8137726,137.8137726,138.34872569999993,z,1,0.5211249999999836,None,01,001,2024-10-16_22h57.47.638,PSY310 Task4,2024.1.5,None,2024-10-16 22h58.08.227879 +0530,
-50,x,13,0,52,0,,,,,138.3637157999999,,138.3505146,138.3637157999999,139.36369639999998,139.36369639999998,139.36369639999998,139.36369639999998,139.36369639999998,140.36348939999993,140.36348939999993,140.96686969999996,x,1,0.593409900000097,None,01,001,2024-10-16_22h57.47.638,PSY310 Task4,2024.1.5,None,2024-10-16 22h58.08.227879 +0530,
150,v,13,1,53,1,,,,,140.98037440000007,,140.96877199999994,140.98037440000007,141.9802029,141.9802029,141.9802029,141.9802029,141.9802029,142.98001980000004,142.98001980000004,143.7474403000001,v,1,0.7588060000000496,None,01,001,2024-10-16_22h57.47.638,PSY310 Task4,2024.1.5,None,2024-10-16 22h58.08.227879 +0530,
50,c,13,2,54,2,,,,,143.7633866000001,,143.74819909999997,143.7633866000001,144.7632854000001,144.7632854000001,144.7632854000001,144.7632854000001,144.7632854000001,145.7632490000001,145.7632490000001,146.43049369999994,c,1,0.6522566999999526,None,01,001,2024-10-16_22h57.47.638,PSY310 Task4,2024.1.5,None,2024-10-16 22h58.08.227879 +0530,
-150,z,13,3,55,3,,,,,146.44652139999994,,146.43125080000004,146.44652139999994,147.44645730000002,147.44645730000002,147.44645730000002,147.44645730000002,147.44645730000002,148.44646540000008,148.44646540000008,149.13055299999996,z,1,0.6777974999999969,None,01,001,2024-10-16_22h57.47.638,PSY310 Task4,2024.1.5,None,2024-10-16 22h58.08.227879 +0530,
-50,x,14,0,56,0,,,,,149.14645640000003,,149.1313156000001,149.14645640000003,150.1462699000001,150.1462699000001,150.1462699000001,150.1462699000001,150.1462699000001,151.1461723,151.1461723,151.7302142000001,x,1,0.5797946000000138,None,01,001,2024-10-16_22h57.47.638,PSY310 Task4,2024.1.5,None,2024-10-16 22h58.08.227879 +0530,
150,v,14,1,57,1,,,,,151.74613810000005,,151.73100339999996,151.74613810000005,152.74630389999993,152.74630389999993,152.74630389999993,152.74630389999993,152.74630389999993,153.7460059,153.7460059,154.29696220000005,v,1,0.5448695000000043,None,01,001,2024-10-16_22h57.47.638,PSY310 Task4,2024.1.5,None,2024-10-16 22h58.08.227879 +0530,
50,c,14,2,58,2,,,,,154.3128056999999,,154.29773090000003,154.3128056999999,155.31271029999994,155.31271029999994,155.31271029999994,155.31271029999994,155.31271029999994,156.31267750000006,156.31267750000006,156.97982930000012,c,1,0.6542864000000463,None,01,001,2024-10-16_22h57.47.638,PSY310 Task4,2024.1.5,None,2024-10-16 22h58.08.227879 +0530,
-150,z,14,3,59,3,,,,,156.99581949999993,,156.98059220000005,156.99581949999993,157.99589070000002,157.99589070000002,157.99589070000002,157.99589070000002,157.99589070000002,158.99572360000002,158.99572360000002,159.5298663000001,z,1,0.5312329000000773,None,01,001,2024-10-16_22h57.47.638,PSY310 Task4,2024.1.5,None,2024-10-16 22h58.08.227879 +0530,
-50,x,15,0,60,0,,,,,159.54572529999996,,159.5306137,159.54572529999996,160.54562650000003,160.54562650000003,160.54562650000003,160.54562650000003,160.54562650000003,161.54553239999996,161.54553239999996,162.0962959000001,x,1,0.5469229000000269,None,01,001,2024-10-16_22h57.47.638,PSY310 Task4,2024.1.5,None,2024-10-16 22h58.08.227879 +0530,
150,v,15,1,61,1,,,,,162.1121988,,162.09704729999999,162.1121988,163.09581400000002,163.09581400000002,163.09581400000002,163.09581400000002,163.1124597999999,164.11207349999995,164.11207349999995,164.7128192,v,1,0.5909087,None,01,001,2024-10-16_22h57.47.638,PSY310 Task4,2024.1.5,None,2024-10-16 22h58.08.227879 +0530,
50,c,15,2,62,2,,,,,164.72869609999998,,164.7135662999999,164.72869609999998,165.72862280000004,165.72862280000004,165.72862280000004,165.72862280000004,165.72862280000004,166.728658,166.728658,167.3626925000001,c,1,0.6222956999999951,None,01,001,2024-10-16_22h57.47.638,PSY310 Task4,2024.1.5,None,2024-10-16 22h58.08.227879 +0530,
-150,z,15,3,63,3,,,,,167.37874639999995,,167.3634497999999,167.37874639999995,168.3786204999999,168.3786204999999,168.3786204999999,168.3786204999999,168.3786204999999,169.37862470000005,169.37862470000005,170.12929009999993,z,1,0.7476980000001276,None,01,001,2024-10-16_22h57.47.638,PSY310 Task4,2024.1.5,None,2024-10-16 22h58.08.227879 +0530,
-50,x,16,0,64,0,,,,,170.1451164,,170.13004410000008,170.1451164,171.1450913000001,171.1450913000001,171.1450913000001,171.1450913000001,171.1450913000001,172.14498219999996,172.14498219999996,172.67920460000005,x,1,0.5200594000000365,None,01,001,2024-10-16_22h57.47.638,PSY310 Task4,2024.1.5,None,2024-10-16 22h58.08.227879 +0530,
150,v,16,1,65,1,,,,,172.69504389999997,,172.67993090000004,172.69504389999997,173.6951388,173.6951388,173.6951388,173.6951388,173.6951388,174.694974,174.694974,175.16241390000005,v,1,0.4571937999999136,None,01,001,2024-10-16_22h57.47.638,PSY310 Task4,2024.1.5,None,2024-10-16 22h58.08.227879 +0530,
50,c,16,2,66,2,,,,,175.17815900000005,,175.16324379999992,175.17815900000005,176.17823640000006,176.17823640000006,176.17823640000006,176.17823640000006,176.17823640000006,177.17804380000007,177.17804380000007,177.7790586000001,c,1,0.5922815999999784,None,01,001,2024-10-16_22h57.47.638,PSY310 Task4,2024.1.5,None,2024-10-16 22h58.08.227879 +0530,
-150,z,16,3,67,3,,,,,177.79475989999992,,177.77987159999998,177.79475989999992,178.79451790000007,178.79451790000007,178.79451790000007,178.79451790000007,178.79451790000007,179.7945861999999,179.7945861999999,180.37853339999992,z,1,0.5692563999998583,None,01,001,2024-10-16_22h57.47.638,PSY310 Task4,2024.1.5,None,2024-10-16 22h58.08.227879 +0530,
-50,x,17,0,68,0,,,,,180.39442520000011,,180.37924550000002,180.39442520000011,181.39438889999997,181.39438889999997,181.39438889999997,181.39438889999997,181.39438889999997,182.39453279999998,182.39453279999998,183.07872380000003,x,1,0.6768475999999737,None,01,001,2024-10-16_22h57.47.638,PSY310 Task4,2024.1.5,None,2024-10-16 22h58.08.227879 +0530,
150,v,17,1,69,1,,,,,183.09437309999998,,183.0797887000001,183.09437309999998,184.09423399999991,184.09423399999991,184.09423399999991,184.09423399999991,184.09423399999991,185.09421939999993,185.09421939999993,185.62845220000008,v,1,0.5276535000000422,None,01,001,2024-10-16_22h57.47.638,PSY310 Task4,2024.1.5,None,2024-10-16 22h58.08.227879 +0530,
50,c,17,2,70,2,,,,,185.6440659,,185.62940460000004,185.6440659,186.6439938000001,186.6439938000001,186.6439938000001,186.6439938000001,186.6439938000001,187.6439820999999,187.6439820999999,188.22813580000002,c,1,0.5748464000000695,None,01,001,2024-10-16_22h57.47.638,PSY310 Task4,2024.1.5,None,2024-10-16 22h58.08.227879 +0530,
-150,z,17,3,71,3,,,,,188.2439933999999,,188.22888740000008,188.2439933999999,189.22725250000008,189.22725250000008,189.22725250000008,189.22725250000008,189.2440778,190.24430660000007,190.24430660000007,190.69506950000005,z,1,0.44981400000006033,None,01,001,2024-10-16_22h57.47.638,PSY310 Task4,2024.1.5,None,2024-10-16 22h58.08.227879 +0530,
-50,x,18,0,72,0,,,,,190.71068530000002,,190.69601000000011,190.71068530000002,191.7107086000001,191.7107086000001,191.7107086000001,191.7107086000001,191.7107086000001,192.7107873,192.7107873,193.31129170000008,x,1,0.5919051000000763,None,01,001,2024-10-16_22h57.47.638,PSY310 Task4,2024.1.5,None,2024-10-16 22h58.08.227879 +0530,
150,v,18,1,73,1,,,,,193.32701369999995,,193.31216050000012,193.32701369999995,194.3270417000001,194.3270417000001,194.3270417000001,194.3270417000001,194.3270417000001,195.32689389999996,195.32689389999996,195.7775815,v,1,0.4350450000001729,None,01,001,2024-10-16_22h57.47.638,PSY310 Task4,2024.1.5,None,2024-10-16 22h58.08.227879 +0530,
50,c,18,2,74,2,,,,,195.79340700000012,,195.7783320000001,195.79340700000012,196.7935645,196.7935645,196.7935645,196.7935645,196.7935645,197.7938967,197.7938967,198.4868401000001,c,1,0.6527518000000327,None,01,001,2024-10-16_22h57.47.638,PSY310 Task4,2024.1.5,None,2024-10-16 22h58.08.227879 +0530,
-150,z,18,3,75,3,,,,,198.4905005999999,,198.48783159999994,198.4905005999999,199.49329910000006,199.49329910000006,199.49329910000006,199.49329910000006,199.49329910000006,200.49338949999992,200.49338949999992,201.01065089999997,z,1,0.5066306999999597,None,01,001,2024-10-16_22h57.47.638,PSY310 Task4,2024.1.5,None,2024-10-16 22h58.08.227879 +0530,
-50,x,19,0,76,0,,,,,201.02645069999994,,201.01140880000003,201.02645069999994,202.02647920000004,202.02647920000004,202.02647920000004,202.02647920000004,202.02647920000004,203.02633420000006,203.02633420000006,203.72714059999998,x,1,0.6845771999999215,None,01,001,2024-10-16_22h57.47.638,PSY310 Task4,2024.1.5,None,2024-10-16 22h58.08.227879 +0530,
150,v,19,1,77,1,,,,,203.7429818999999,,203.72786109999993,203.7429818999999,204.74287010000012,204.74287010000012,204.74287010000012,204.74287010000012,204.74287010000012,205.7427808,205.7427808,206.3602484999999,v,1,0.6043025999999827,None,01,001,2024-10-16_22h57.47.638,PSY310 Task4,2024.1.5,None,2024-10-16 22h58.08.227879 +0530,
50,c,19,2,78,2,,,,,206.3761574,,206.36101110000004,206.3761574,207.3761869,207.3761869,207.3761869,207.3761869,207.3761869,208.3761038,208.3761038,208.99328620000006,c,1,0.6017799999999625,None,01,001,2024-10-16_22h57.47.638,PSY310 Task4,2024.1.5,None,2024-10-16 22h58.08.227879 +0530,
-150,z,19,3,79,3,,,,,209.00924770000006,,208.9940426999999,209.00924770000006,210.00927430000002,210.00927430000002,210.00927430000002,210.00927430000002,210.00927430000002,211.0091706999999,211.0091706999999,211.4931461000001,z,1,0.4718468999999459,None,01,001,2024-10-16_22h57.47.638,PSY310 Task4,2024.1.5,None,2024-10-16 22h58.08.227879 +0530,
-50,x,20,0,80,0,,,,,211.5090783999999,,211.49390029999995,211.5090783999999,212.50929569999994,212.50929569999994,212.50929569999994,212.50929569999994,212.50929569999994,213.50909350000006,213.50909350000006,214.15964839999992,x,1,0.6392472999998517,None,01,001,2024-10-16_22h57.47.638,PSY310 Task4,2024.1.5,None,2024-10-16 22h58.08.227879 +0530,
150,v,20,1,81,1,,,,,214.1756097,,214.16044379999994,214.1756097,215.17563670000004,215.17563670000004,215.17563670000004,215.17563670000004,215.17563670000004,216.17548239999996,216.17548239999996,216.7094872,v,1,0.5306083999998918,None,01,001,2024-10-16_22h57.47.638,PSY310 Task4,2024.1.5,None,2024-10-16 22h58.08.227879 +0530,
50,c,20,2,82,2,,,,,216.72548570000004,,216.71024740000007,216.72548570000004,217.72571500000004,217.72571500000004,217.72571500000004,217.72571500000004,217.72571500000004,218.7255525999999,218.7255525999999,219.39271910000002,c,1,0.6587065000001076,None,01,001,2024-10-16_22h57.47.638,PSY310 Task4,2024.1.5,None,2024-10-16 22h58.08.227879 +0530,
-150,z,20,3,83,3,,,,,219.40876120000007,,219.39348229999996,219.40876120000007,220.4085316999999,220.4085316999999,220.4085316999999,220.4085316999999,220.4085316999999,221.40852229999996,221.40852229999996,222.00925110000003,z,1,0.5940090000001419,None,01,001,2024-10-16_22h57.47.638,PSY310 Task4,2024.1.5,None,2024-10-16 22h58.08.227879 +0530,
-50,x,21,0,84,0,,,,,222.02512509999997,,222.01001689999998,222.02512509999997,223.02502430000004,223.02502430000004,223.02502430000004,223.02502430000004,223.02502430000004,224.02508860000012,224.02508860000012,224.67580139999995,x,1,0.6450252999998156,None,01,001,2024-10-16_22h57.47.638,PSY310 Task4,2024.1.5,None,2024-10-16 22h58.08.227879 +0530,
150,v,21,1,85,1,,,,,224.69180389999997,,224.67656149999993,224.69180389999997,225.69160570000008,225.69160570000008,225.69160570000008,225.69160570000008,225.69160570000008,226.69154759999992,226.69154759999992,227.14231180000002,v,1,0.4481287000000975,None,01,001,2024-10-16_22h57.47.638,PSY310 Task4,2024.1.5,None,2024-10-16 22h58.08.227879 +0530,
50,c,21,2,86,2,,,,,227.15811830000007,,227.1430921000001,227.15811830000007,228.1584398,228.1584398,228.1584398,228.1584398,228.1584398,229.15850610000007,229.15850610000007,229.708803,c,1,0.5433852000001025,None,01,001,2024-10-16_22h57.47.638,PSY310 Task4,2024.1.5,None,2024-10-16 22h58.08.227879 +0530,
-150,z,21,3,87,3,,,,,229.72460840000008,,229.70956449999994,229.72460840000008,230.7246293999999,230.7246293999999,230.7246293999999,230.7246293999999,230.7246293999999,231.72477589999994,231.72477589999994,232.20862570000008,z,1,0.4791384999998627,None,01,001,2024-10-16_22h57.47.638,PSY310 Task4,2024.1.5,None,2024-10-16 22h58.08.227879 +0530,
-50,x,22,0,88,0,,,,,232.2244892000001,,232.2093961999999,232.2244892000001,233.22449770000003,233.22449770000003,233.22449770000003,233.22449770000003,233.22449770000003,234.22456409999995,234.22456409999995,234.75840689999995,x,1,0.5289024999999583,None,01,001,2024-10-16_22h57.47.638,PSY310 Task4,2024.1.5,None,2024-10-16 22h58.08.227879 +0530,
150,v,22,1,89,1,,,,,234.7743094,,234.75915379999992,234.7743094,235.7578446,235.7578446,235.7578446,235.7578446,235.7746585,236.77419499999996,236.77419499999996,237.5415008,v,1,0.7510546000000886,None,01,001,2024-10-16_22h57.47.638,PSY310 Task4,2024.1.5,None,2024-10-16 22h58.08.227879 +0530,
50,c,22,2,90,2,,,,,237.55748710000012,,237.5422724,237.55748710000012,238.55756350000001,238.55756350000001,238.55756350000001,238.55756350000001,238.55756350000001,239.54101130000004,239.54101130000004,240.22465820000002,c,1,0.6728577999999743,None,01,001,2024-10-16_22h57.47.638,PSY310 Task4,2024.1.5,None,2024-10-16 22h58.08.227879 +0530,
-150,z,22,3,91,3,,,,,240.24061359999996,,240.22541969999997,240.24061359999996,241.24062049999998,241.24062049999998,241.24062049999998,241.24062049999998,241.24062049999998,242.2405394,242.2405394,242.92467050000005,z,1,0.6768332999999984,None,01,001,2024-10-16_22h57.47.638,PSY310 Task4,2024.1.5,None,2024-10-16 22h58.08.227879 +0530,
-50,x,23,0,92,0,,,,,242.94056610000007,,242.9254347000001,242.94056610000007,243.94039240000006,243.94039240000006,243.94039240000006,243.94039240000006,243.94039240000006,244.94046060000005,244.94046060000005,245.57471959999998,x,1,0.6208226999999624,None,01,001,2024-10-16_22h57.47.638,PSY310 Task4,2024.1.5,None,2024-10-16 22h58.08.227879 +0530,
150,v,23,1,93,1,,,,,245.5931882,,245.5754171000001,245.5931882,246.59034509999992,246.59034509999992,246.59034509999992,246.59034509999992,246.60870419999992,247.5902390000001,247.5902390000001,248.2076379,v,1,0.6148516000000654,None,01,001,2024-10-16_22h57.47.638,PSY310 Task4,2024.1.5,None,2024-10-16 22h58.08.227879 +0530,
50,c,23,2,94,2,,,,,248.2237745,,248.20840569999996,248.2237745,249.22341299999994,249.22341299999994,249.22341299999994,249.22341299999994,249.22341299999994,250.22342460000004,250.22342460000004,250.8911384999999,c,1,0.6513196000000789,None,01,001,2024-10-16_22h57.47.638,PSY310 Task4,2024.1.5,None,2024-10-16 22h58.08.227879 +0530,
-150,z,23,3,95,3,,,,,250.9069704000001,,250.8920316000001,250.9069704000001,251.90680799999996,251.90680799999996,251.90680799999996,251.90680799999996,251.90680799999996,252.9065187000001,252.9065187000001,253.50729030000002,z,1,0.5901225000000068,None,01,001,2024-10-16_22h57.47.638,PSY310 Task4,2024.1.5,None,2024-10-16 22h58.08.227879 +0530,
-50,x,24,0,96,0,,,,,253.52311600000007,,253.50805220000007,253.52311600000007,254.52320869999994,254.52320869999994,254.52320869999994,254.52320869999994,254.52320869999994,255.52319179999995,255.52319179999995,255.991035,x,1,0.4668283999999403,None,01,001,2024-10-16_22h57.47.638,PSY310 Task4,2024.1.5,None,2024-10-16 22h58.08.227879 +0530,
150,v,24,1,97,1,,,,,256.00663740000005,,255.9919393,256.00663740000005,257.0062568999999,257.0062568999999,257.0062568999999,257.0062568999999,257.0062568999999,258.0062290999999,258.0062290999999,258.4736183,v,1,0.4630842000001394,None,01,001,2024-10-16_22h57.47.638,PSY310 Task4,2024.1.5,None,2024-10-16 22h58.08.227879 +0530,
50,c,24,2,98,2,,,,,258.4894624000001,,258.4743768999999,258.4894624000001,259.4895378000001,259.4895378000001,259.4895378000001,259.4895378000001,259.4895378000001,260.48951439999996,260.48951439999996,261.2237066,c,1,0.7182571999999254,None,01,001,2024-10-16_22h57.47.638,PSY310 Task4,2024.1.5,None,2024-10-16 22h58.08.227879 +0530,
-150,z,24,3,99,3,,,,,261.2395769,,261.2245111,261.2395769,262.2392542,262.2392542,262.2392542,262.2392542,262.2392542,263.2392072,263.2392072,263.57337400000006,z,1,0.3297898000000714,None,01,001,2024-10-16_22h57.47.638,PSY310 Task4,2024.1.5,None,2024-10-16 22h58.08.227879 +0530,
-50,x,25,0,100,0,,,,,263.58957499999997,,263.57423629999994,263.58957499999997,264.5894604,264.5894604,264.5894604,264.5894604,264.5894604,265.58940729999995,265.58940729999995,266.22525010000004,x,1,0.6311918999999762,None,01,001,2024-10-16_22h57.47.638,PSY310 Task4,2024.1.5,None,2024-10-16 22h58.08.227879 +0530,
150,v,25,1,101,1,,,,,266.2393371999999,,266.22821180000005,266.2393371999999,267.2390312,267.2390312,267.2390312,267.2390312,267.2390312,268.23905390000004,268.23905390000004,268.7062678,v,1,0.46312779999993836,None,01,001,2024-10-16_22h57.47.638,PSY310 Task4,2024.1.5,None,2024-10-16 22h58.08.227879 +0530,
50,c,25,2,102,2,,,,,268.72233860000006,,268.7070401000001,268.72233860000006,269.7221456,269.7221456,269.7221456,269.7221456,269.7221456,270.7221552000001,270.7221552000001,271.30617570000004,c,1,0.5788101999999071,None,01,001,2024-10-16_22h57.47.638,PSY310 Task4,2024.1.5,None,2024-10-16 22h58.08.227879 +0530,
-150,z,25,3,103,3,,,,,271.32228680000003,,271.3069138000001,271.32228680000003,272.3221229999999,272.3221229999999,272.3221229999999,272.3221229999999,272.3221229999999,273.32202540000003,273.32202540000003,273.8896731,z,1,0.5536763999998584,None,01,001,2024-10-16_22h57.47.638,PSY310 Task4,2024.1.5,None,2024-10-16 22h58.08.227879 +0530,
-50,x,26,0,104,0,,,,,273.90524989999994,,273.8904104999999,273.90524989999994,274.9052759000001,274.9052759000001,274.9052759000001,274.9052759000001,274.9052759000001,275.9051148000001,275.9051148000001,276.3892966000001,x,1,0.4833473999999569,None,01,001,2024-10-16_22h57.47.638,PSY310 Task4,2024.1.5,None,2024-10-16 22h58.08.227879 +0530,
150,v,26,1,105,1,,,,,276.405039,,276.3900444000001,276.405039,277.4052812,277.4052812,277.4052812,277.4052812,277.4052812,278.40499090000003,278.40499090000003,279.13911310000003,v,1,0.7286719000001085,None,01,001,2024-10-16_22h57.47.638,PSY310 Task4,2024.1.5,None,2024-10-16 22h58.08.227879 +0530,
50,c,26,2,106,2,,,,,279.1550162000001,,279.1398764999999,279.1550162000001,280.15485160000003,280.15485160000003,280.15485160000003,280.15485160000003,280.15485160000003,281.1548043,281.1548043,281.688719,c,1,0.5291009000000031,None,01,001,2024-10-16_22h57.47.638,PSY310 Task4,2024.1.5,None,2024-10-16 22h58.08.227879 +0530,
-150,z,26,3,107,3,,,,,281.7047093000001,,281.68957969999997,281.7047093000001,282.70473130000005,282.70473130000005,282.70473130000005,282.70473130000005,282.70473130000005,283.70466239999996,283.70466239999996,284.1887263000001,z,1,0.47437379999996665,None,01,001,2024-10-16_22h57.47.638,PSY310 Task4,2024.1.5,None,2024-10-16 22h58.08.227879 +0530,
-50,x,27,0,108,0,,,,,284.20463100000006,,284.1897799999999,284.20463100000006,285.20459389999996,285.20459389999996,285.20459389999996,285.20459389999996,285.20459389999996,286.2045028,286.2045028,286.8552672999999,x,1,0.6343217999999524,None,01,001,2024-10-16_22h57.47.638,PSY310 Task4,2024.1.5,None,2024-10-16 22h58.08.227879 +0530,
150,v,27,1,109,1,,,,,286.8712233000001,,286.85603760000004,286.8712233000001,287.87104410000006,287.87104410000006,287.87104410000006,287.87104410000006,287.87104410000006,288.8712613,288.8712613,289.60502410000004,v,1,0.7280193999999938,None,01,001,2024-10-16_22h57.47.638,PSY310 Task4,2024.1.5,None,2024-10-16 22h58.08.227879 +0530,
50,c,27,2,110,2,,,,,289.62107149999997,,289.60578570000007,289.62107149999997,290.6209897000001,290.6209897000001,290.6209897000001,290.6209897000001,290.6209897000001,291.6209739000001,291.6209739000001,292.1549172,c,1,0.5271194000001742,None,01,001,2024-10-16_22h57.47.638,PSY310 Task4,2024.1.5,None,2024-10-16 22h58.08.227879 +0530,
-150,z,27,3,111,3,,,,,292.1707693999999,,292.15567439999995,292.1707693999999,293.1722892,293.1722892,293.1722892,293.1722892,293.1722892,294.17099570000005,294.17099570000005,294.9879274,z,1,0.8010663000000022,None,01,001,2024-10-16_22h57.47.638,PSY310 Task4,2024.1.5,None,2024-10-16 22h58.08.227879 +0530,
-50,x,28,0,112,0,,,,,295.00386860000003,,294.98869420000005,295.00386860000003,296.0041589,296.0041589,296.0041589,296.0041589,296.0041589,297.0038084,297.0038084,297.47123910000005,x,1,0.4645149999998921,None,01,001,2024-10-16_22h57.47.638,PSY310 Task4,2024.1.5,None,2024-10-16 22h58.08.227879 +0530,
150,v,28,1,113,1,,,,,297.4871634000001,,297.47198230000004,297.4871634000001,298.48704640000005,298.48704640000005,298.48704640000005,298.48704640000005,298.48704640000005,299.4870192000001,299.4870192000001,299.9882603000001,v,1,0.5000101000000541,None,01,001,2024-10-16_22h57.47.638,PSY310 Task4,2024.1.5,None,2024-10-16 22h58.08.227879 +0530,
50,c,28,2,114,2,,,,,300.00367729999994,,299.9892861999999,300.00367729999994,301.00361640000006,301.00361640000006,301.00361640000006,301.00361640000006,301.00361640000006,302.0034763000001,302.0034763000001,302.82089500000006,c,1,0.8008135999998558,None,01,001,2024-10-16_22h57.47.638,PSY310 Task4,2024.1.5,None,2024-10-16 22h58.08.227879 +0530,
-150,z,28,3,115,3,,,,,302.83678080000004,,302.82164250000005,302.83678080000004,303.8367327000001,303.8367327000001,303.8367327000001,303.8367327000001,303.8367327000001,304.8369353999999,304.8369353999999,306.3872859999999,z,1,1.5422656000000643,None,01,001,2024-10-16_22h57.47.638,PSY310 Task4,2024.1.5,None,2024-10-16 22h58.08.227879 +0530,
-50,x,29,0,116,0,,,,,306.40349330000004,,306.3881457,306.40349330000004,307.4032611,307.4032611,307.4032611,307.4032611,307.4032611,308.4031832999999,308.4031832999999,308.87056039999993,x,1,0.45620609999991757,None,01,001,2024-10-16_22h57.47.638,PSY310 Task4,2024.1.5,None,2024-10-16 22h58.08.227879 +0530,
150,v,29,1,117,1,,,,,308.8864105,,308.8713686000001,308.8864105,309.8864072000001,309.8864072000001,309.8864072000001,309.8864072000001,309.8864072000001,310.8862752,310.8862752,311.40403420000007,v,1,0.5091221999998652,None,01,001,2024-10-16_22h57.47.638,PSY310 Task4,2024.1.5,None,2024-10-16 22h58.08.227879 +0530,
50,c,29,2,118,2,,,,,311.41963069999997,,311.40492659999995,311.41963069999997,312.40306310000005,312.40306310000005,312.40306310000005,312.40306310000005,312.4195823,313.4194662,313.4194662,314.1204322000001,c,1,0.697850600000038,None,01,001,2024-10-16_22h57.47.638,PSY310 Task4,2024.1.5,None,2024-10-16 22h58.08.227879 +0530,
-150,z,29,3,119,3,,,,,314.1361056999999,,314.12156170000003,314.1361056999999,315.1360234000001,315.1360234000001,315.1360234000001,315.1360234000001,315.1360234000001,316.1359253999999,316.1359253999999,316.63685340000006,z,1,0.485390900000084,None,01,001,2024-10-16_22h57.47.638,PSY310 Task4,2024.1.5,None,2024-10-16 22h58.08.227879 +0530,
-50,x,30,0,120,0,,,,,316.6526593000001,,316.6376321,316.6526593000001,317.6524958,317.6524958,317.6524958,317.6524958,317.6524958,318.65247780000004,318.65247780000004,319.18644960000006,x,1,0.5173714000000018,None,01,001,2024-10-16_22h57.47.638,PSY310 Task4,2024.1.5,None,2024-10-16 22h58.08.227879 +0530,
150,v,30,1,121,1,,,,,319.20245019999993,,319.18739890000006,319.20245019999993,320.2023614,320.2023614,320.2023614,320.2023614,320.2023614,321.2022852,321.2022852,321.7862511999999,v,1,0.568165800000088,None,01,001,2024-10-16_22h57.47.638,PSY310 Task4,2024.1.5,None,2024-10-16 22h58.08.227879 +0530,
50,c,30,2,122,2,,,,,321.80229940000004,,321.78701920000003,321.80229940000004,322.7856446999999,322.7856446999999,322.7856446999999,322.7856446999999,322.80230400000005,323.8022535,323.8022535,324.2863299999999,c,1,0.4674735999999484,None,01,001,2024-10-16_22h57.47.638,PSY310 Task4,2024.1.5,None,2024-10-16 22h58.08.227879 +0530,
-150,z,30,3,123,3,,,,,324.3021610999999,,324.28755219999994,324.3021610999999,325.3021546,325.3021546,325.3021546,325.3021546,325.3021546,326.30202510000004,326.30202510000004,326.81965549999995,z,1,0.5160485999999764,None,01,001,2024-10-16_22h57.47.638,PSY310 Task4,2024.1.5,None,2024-10-16 22h58.08.227879 +0530,
-50,x,31,0,124,0,,,,,326.8353548,,326.8206911,326.8353548,327.8352448999999,327.8352448999999,327.8352448999999,327.8352448999999,327.8352448999999,328.8351579,328.8351579,329.40289959999996,x,1,0.5667382999999973,None,01,001,2024-10-16_22h57.47.638,PSY310 Task4,2024.1.5,None,2024-10-16 22h58.08.227879 +0530,
150,v,31,1,125,1,,,,,329.4184788,,329.4036727,329.4184788,330.4185612000001,330.4185612000001,330.4185612000001,330.4185612000001,330.4185612000001,331.41843859999994,331.41843859999994,331.83742860000007,v,1,0.4043513999999959,None,01,001,2024-10-16_22h57.47.638,PSY310 Task4,2024.1.5,None,2024-10-16 22h58.08.227879 +0530,
50,c,31,2,126,2,,,,,331.8516234000001,,331.8390248999999,331.8516234000001,332.85161259999995,332.85161259999995,332.85161259999995,332.85161259999995,332.85161259999995,333.85152070000004,333.85152070000004,334.55384389999995,c,1,0.6877299000000221,None,01,001,2024-10-16_22h57.47.638,PSY310 Task4,2024.1.5,None,2024-10-16 22h58.08.227879 +0530,
-150,z,31,3,127,3,,,,,334.5681482,,334.55776489999994,334.5681482,335.5681767000001,335.5681767000001,335.5681767000001,335.5681767000001,335.5681767000001,336.56821289999993,336.56821289999993,337.1022061000001,z,1,0.5295569999998406,None,01,001,2024-10-16_22h57.47.638,PSY310 Task4,2024.1.5,None,2024-10-16 22h58.08.227879 +0530,
-50,x,32,0,128,0,,,,,337.1181088999999,,337.1030349,337.1181088999999,338.1179537999999,338.1179537999999,338.1179537999999,338.1179537999999,338.1179537999999,339.1180555000001,339.1180555000001,339.90213270000004,x,1,0.7736440999999559,None,01,001,2024-10-16_22h57.47.638,PSY310 Task4,2024.1.5,None,2024-10-16 22h58.08.227879 +0530,
150,v,32,1,129,1,,,,,339.91777090000005,,339.9031993000001,339.91777090000005,340.9177545,340.9177545,340.9177545,340.9177545,340.9177545,341.9177130999999,341.9177130999999,342.43531299999995,v,1,0.5095577999998113,None,01,001,2024-10-16_22h57.47.638,PSY310 Task4,2024.1.5,None,2024-10-16 22h58.08.227879 +0530,
50,c,32,2,130,2,,,,,342.4510685,,342.4360395000001,342.4510685,343.45103330000006,343.45103330000006,343.45103330000006,343.45103330000006,343.45103330000006,344.45107499999995,344.45107499999995,344.91842339999994,c,1,0.45768950000001496,None,01,001,2024-10-16_22h57.47.638,PSY310 Task4,2024.1.5,None,2024-10-16 22h58.08.227879 +0530,
-150,z,32,3,131,3,,,,,344.93416490000004,,344.9191797000001,344.93416490000004,345.93415060000007,345.93415060000007,345.93415060000007,345.93415060000007,345.93415060000007,346.9342621999999,346.9342621999999,347.5682557,z,1,0.6290221000001566,None,01,001,2024-10-16_22h57.47.638,PSY310 Task4,2024.1.5,None,2024-10-16 22h58.08.227879 +0530,
-50,x,33,0,132,0,,,,,347.58402090000004,,347.5690244,347.58402090000004,348.5840611000001,348.5840611000001,348.5840611000001,348.5840611000001,348.5840611000001,349.58386670000004,349.58386670000004,350.2349528,x,1,0.642916600000035,None,01,001,2024-10-16_22h57.47.638,PSY310 Task4,2024.1.5,None,2024-10-16 22h58.08.227879 +0530,
150,v,33,1,133,1,,,,,350.25050669999996,,350.23570859999995,350.25050669999996,351.2505155000001,351.2505155000001,351.2505155000001,351.2505155000001,351.2505155000001,352.25069469999994,352.25069469999994,352.7512128000001,v,1,0.4928853000001254,None,01,001,2024-10-16_22h57.47.638,PSY310 Task4,2024.1.5,None,2024-10-16 22h58.08.227879 +0530,
50,c,33,2,134,2,,,,,352.7670025,,352.7519757,352.7670025,353.76710419999995,353.76710419999995,353.76710419999995,353.76710419999995,353.76710419999995,354.76701090000006,354.76701090000006,355.6177385000001,x,0,0.8468757000000551,None,01,001,2024-10-16_22h57.47.638,PSY310 Task4,2024.1.5,None,2024-10-16 22h58.08.227879 +0530,
-150,z,33,3,135,3,,,,,355.6335389000001,,355.6185071,355.6335389000001,356.6334572999999,356.6334572999999,356.6334572999999,356.6334572999999,356.6334572999999,357.6335703,357.6335703,358.2174499,z,1,0.568296700000019,None,01,001,2024-10-16_22h57.47.638,PSY310 Task4,2024.1.5,None,2024-10-16 22h58.08.227879 +0530,
-50,x,34,0,136,0,,,,,358.2333833,,358.21821249999994,358.2333833,359.23339609999994,359.23339609999994,359.23339609999994,359.23339609999994,359.23339609999994,360.23321310000006,360.23321310000006,360.8177006000001,x,1,0.5746626999998625,None,01,001,2024-10-16_22h57.47.638,PSY310 Task4,2024.1.5,None,2024-10-16 22h58.08.227879 +0530,
150,v,34,1,137,1,,,,,360.8332438,,360.8188098999999,360.8332438,361.8331318999999,361.8331318999999,361.8331318999999,361.8331318999999,361.8331318999999,362.83398450000004,362.83398450000004,363.41739970000003,v,1,0.5787421999998514,None,01,001,2024-10-16_22h57.47.638,PSY310 Task4,2024.1.5,None,2024-10-16 22h58.08.227879 +0530,
50,c,34,2,138,2,,,,,363.43353520000005,,363.41816489999997,363.43353520000005,364.43291750000003,364.43291750000003,364.43291750000003,364.43291750000003,364.43291750000003,365.4330749999999,365.4330749999999,365.98356650000005,c,1,0.5448714000001473,None,01,001,2024-10-16_22h57.47.638,PSY310 Task4,2024.1.5,None,2024-10-16 22h58.08.227879 +0530,
-150,z,34,3,139,3,,,,,365.9996446,,365.9843419000001,365.9996446,366.9997510999999,366.9997510999999,366.9997510999999,366.9997510999999,366.9997510999999,367.99954490000005,367.99954490000005,368.53364009999996,z,1,0.5225777000000562,None,01,001,2024-10-16_22h57.47.638,PSY310 Task4,2024.1.5,None,2024-10-16 22h58.08.227879 +0530,
-50,x,35,0,140,0,,,,,368.5496415,,368.53437370000006,368.5496415,369.5493200000001,369.5493200000001,369.5493200000001,369.5493200000001,369.5493200000001,370.5494563,370.5494563,371.1167349,x,1,0.5551614999999401,None,01,001,2024-10-16_22h57.47.638,PSY310 Task4,2024.1.5,None,2024-10-16 22h58.08.227879 +0530,
150,v,35,1,141,1,,,,,371.1325205999999,,371.11748940000007,371.1325205999999,372.13252480000006,372.13252480000006,372.13252480000006,372.13252480000006,372.13252480000006,373.1329197,373.1329197,373.81651439999996,v,1,0.6670423999999002,None,01,001,2024-10-16_22h57.47.638,PSY310 Task4,2024.1.5,None,2024-10-16 22h58.08.227879 +0530,
50,c,35,2,142,2,,,,,373.83235620000005,,373.81727750000005,373.83235620000005,374.8323167000001,374.8323167000001,374.8323167000001,374.8323167000001,374.8323167000001,375.8324106,375.8324106,376.3502068,c,1,0.5166380000000572,None,01,001,2024-10-16_22h57.47.638,PSY310 Task4,2024.1.5,None,2024-10-16 22h58.08.227879 +0530,
-150,z,35,3,143,3,,,,,376.3655533000001,,376.3509653000001,376.3655533000001,377.36560099999997,377.36560099999997,377.36560099999997,377.36560099999997,377.36560099999997,378.3654607000001,378.3654607000001,379.08324319999997,z,1,0.7112000000001899,None,01,001,2024-10-16_22h57.47.638,PSY310 Task4,2024.1.5,None,2024-10-16 22h58.08.227879 +0530,
-50,x,36,0,144,0,,,,,379.0986689000001,,379.08406119999995,379.0986689000001,380.0999829,380.0999829,380.0999829,380.0999829,380.0999829,381.0985768999999,381.0985768999999,381.53280470000004,x,1,0.4321698999999626,None,01,001,2024-10-16_22h57.47.638,PSY310 Task4,2024.1.5,None,2024-10-16 22h58.08.227879 +0530,
150,v,36,1,145,1,,,,,381.54856040000004,,381.5335551999999,381.54856040000004,382.5484650000001,382.5484650000001,382.5484650000001,382.5484650000001,382.5484650000001,383.54848560000005,383.54848560000005,383.9994085000001,v,1,0.4393165000001318,None,01,001,2024-10-16_22h57.47.638,PSY310 Task4,2024.1.5,None,2024-10-16 22h58.08.227879 +0530,
50,c,36,2,146,2,,,,,384.01505199999997,,384.0001803,384.01505199999997,385.01532010000005,385.01532010000005,385.01532010000005,385.01532010000005,385.01532010000005,386.0150215000001,386.0150215000001,386.6156807,c,1,0.592865300000085,None,01,001,2024-10-16_22h57.47.638,PSY310 Task4,2024.1.5,None,2024-10-16 22h58.08.227879 +0530,
-150,z,36,3,147,3,,,,,386.6315655000001,,386.6164274,386.6315655000001,387.6315227,387.6315227,387.6315227,387.6315227,387.6315227,388.6315764000001,388.6315764000001,389.1824094000001,z,1,0.5357406000000537,None,01,001,2024-10-16_22h57.47.638,PSY310 Task4,2024.1.5,None,2024-10-16 22h58.08.227879 +0530,
-50,x,37,0,148,0,,,,,389.19814369999995,,389.18352260000006,389.19814369999995,390.19813079999994,390.19813079999994,390.19813079999994,390.19813079999994,390.19813079999994,391.1979650999999,391.1979650999999,391.9321486000001,x,1,0.7250603999998475,None,01,001,2024-10-16_22h57.47.638,PSY310 Task4,2024.1.5,None,2024-10-16 22h58.08.227879 +0530,
150,v,37,1,149,1,,,,,391.9480241000001,,391.93291320000003,391.9480241000001,392.9479421000001,392.9479421000001,392.9479421000001,392.9479421000001,392.9479421000001,393.9479275000001,393.9479275000001,394.4321855999999,v,1,0.4810743000000457,None,01,001,2024-10-16_22h57.47.638,PSY310 Task4,2024.1.5,None,2024-10-16 22h58.08.227879 +0530,
50,c,37,2,150,2,,,,,394.44775060000006,,394.4329474000001,394.44775060000006,395.44793000000004,395.44793000000004,395.44793000000004,395.44793000000004,395.44793000000004,396.44765099999995,396.44765099999995,396.9986315000001,c,1,0.5497987000001103,None,01,001,2024-10-16_22h57.47.638,PSY310 Task4,2024.1.5,None,2024-10-16 22h58.08.227879 +0530,
-150,z,37,3,151,3,,,,,397.01444349999997,,396.9994498000001,397.01444349999997,398.0142086999999,398.0142086999999,398.0142086999999,398.0142086999999,398.0142086999999,399.01419379999993,399.01419379999993,399.4649302,z,1,0.4350613000001431,None,01,001,2024-10-16_22h57.47.638,PSY310 Task4,2024.1.5,None,2024-10-16 22h58.08.227879 +0530,
-50,x,38,0,152,0,,,,,399.4808052000001,,399.4656855999999,399.4808052000001,400.4807467999999,400.4807467999999,400.4807467999999,400.4807467999999,400.4807467999999,401.4806513000001,401.4806513000001,402.04812590000006,x,1,0.5607492999999977,None,01,001,2024-10-16_22h57.47.638,PSY310 Task4,2024.1.5,None,2024-10-16 22h58.08.227879 +0530,
150,v,38,1,153,1,,,,,402.0639664,,402.0488748,402.0639664,403.0638971000001,403.0638971000001,403.0638971000001,403.0638971000001,403.0638971000001,404.0638346999999,404.0638346999999,404.58246110000005,v,1,0.5063359999999193,None,01,001,2024-10-16_22h57.47.638,PSY310 Task4,2024.1.5,None,2024-10-16 22h58.08.227879 +0530,
50,c,38,2,154,2,,,,,404.5971870000001,,404.5850158999999,404.5971870000001,405.5971179999999,405.5971179999999,405.5971179999999,405.5971179999999,405.5971179999999,406.5971746,406.5971746,407.1477362999999,c,1,0.533504799999946,None,01,001,2024-10-16_22h57.47.638,PSY310 Task4,2024.1.5,None,2024-10-16 22h58.08.227879 +0530,
-150,z,38,3,155,3,,,,,407.16364569999996,,407.1484743000001,407.16364569999996,408.16358719999994,408.16358719999994,408.16358719999994,408.16358719999994,408.16358719999994,409.16352069999994,409.16352069999994,409.6309019,z,1,0.46144630000003417,None,01,001,2024-10-16_22h57.47.638,PSY310 Task4,2024.1.5,None,2024-10-16 22h58.08.227879 +0530,
-50,x,39,0,156,0,,,,,409.6468342999999,,409.6316567000001,409.6468342999999,410.64671580000004,410.64671580000004,410.64671580000004,410.64671580000004,410.64671580000004,411.64686389999997,411.64686389999997,412.28083889999994,x,1,0.6222600999999486,None,01,001,2024-10-16_22h57.47.638,PSY310 Task4,2024.1.5,None,2024-10-16 22h58.08.227879 +0530,
150,v,39,1,157,1,,,,,412.29668459999994,,412.28157310000006,412.29668459999994,413.2965993,413.2965993,413.2965993,413.2965993,413.2965993,414.2965547000001,414.2965547000001,415.01441180000006,v,1,0.703980300000012,None,01,001,2024-10-16_22h57.47.638,PSY310 Task4,2024.1.5,None,2024-10-16 22h58.08.227879 +0530,
50,c,39,2,158,2,,,,,415.02992859999995,,415.0151505000001,415.02992859999995,416.0299046,416.0299046,416.0299046,416.0299046,416.0299046,417.02965059999997,417.02965059999997,417.5480643000001,c,1,0.5135448000000906,None,01,001,2024-10-16_22h57.47.638,PSY310 Task4,2024.1.5,None,2024-10-16 22h58.08.227879 +0530,
-150,z,39,3,159,3,,,,,417.56297070000005,,417.54950499999995,417.56297070000005,418.5628954000001,418.5628954000001,418.5628954000001,418.5628954000001,418.5628954000001,419.5630163000001,419.5630163000001,420.0141435999999,z,1,0.4398069999999734,None,01,001,2024-10-16_22h57.47.638,PSY310 Task4,2024.1.5,None,2024-10-16 22h58.08.227879 +0530,
-50,x,40,0,160,0,,,,,420.0297843000001,,420.0152531000001,420.0297843000001,421.0294842999999,421.0294842999999,421.0294842999999,421.0294842999999,421.0294842999999,422.02982040000006,422.02982040000006,422.5470388000001,x,1,0.5164082000001144,None,01,001,2024-10-16_22h57.47.638,PSY310 Task4,2024.1.5,None,2024-10-16 22h58.08.227879 +0530,
150,v,40,1,161,1,,,,,422.56270799999993,,422.54781090000006,422.56270799999993,423.56307889999994,423.56307889999994,423.56307889999994,423.56307889999994,423.56307889999994,424.5628475000001,424.5628475000001,424.8966958000001,v,1,0.32899730000008276,None,01,001,2024-10-16_22h57.47.638,PSY310 Task4,2024.1.5,None,2024-10-16 22h58.08.227879 +0530,
50,c,40,2,162,2,,,,,424.9125171999999,,424.8974439000001,424.9125171999999,425.9124359,425.9124359,425.9124359,425.9124359,425.9124359,426.91249730000004,426.91249730000004,427.3966805,c,1,0.4815725000000839,None,01,001,2024-10-16_22h57.47.638,PSY310 Task4,2024.1.5,None,2024-10-16 22h58.08.227879 +0530,
-150,z,40,3,163,3,,,,,427.4124594,,427.3974482000001,427.4124594,428.4123773000001,428.4123773000001,428.4123773000001,428.4123773000001,428.4123773000001,429.4123138,429.4123138,429.8130140999999,z,1,0.3956123000000389,None,01,001,2024-10-16_22h57.47.638,PSY310 Task4,2024.1.5,None,2024-10-16 22h58.08.227879 +0530,
-50,x,41,0,164,0,,,,,429.8291468,,429.81375980000007,429.8291468,430.8289107999999,430.8289107999999,430.8289107999999,430.8289107999999,430.8289107999999,431.8289155,431.8289155,432.2962301,x,1,0.4543760999999904,None,01,001,2024-10-16_22h57.47.638,PSY310 Task4,2024.1.5,None,2024-10-16 22h58.08.227879 +0530,
150,v,41,1,165,1,,,,,432.31239759999994,,432.2969789000001,432.31239759999994,433.3119672,433.3119672,433.3119672,433.3119672,433.3119672,434.31191590000003,434.31191590000003,434.8293675,v,1,0.5023004999998193,None,01,001,2024-10-16_22h57.47.638,PSY310 Task4,2024.1.5,None,2024-10-16 22h58.08.227879 +0530,
50,c,41,2,166,2,,,,,434.8454551,,434.8301053,434.8454551,435.84528739999996,435.84528739999996,435.84528739999996,435.84528739999996,435.84528739999996,436.8451723999999,436.8451723999999,437.3795184999999,c,1,0.5331896000000143,None,01,001,2024-10-16_22h57.47.638,PSY310 Task4,2024.1.5,None,2024-10-16 22h58.08.227879 +0530,
-150,z,41,3,167,3,,,,,437.3950748,,437.38027409999995,437.3950748,438.39496510000004,438.39496510000004,438.39496510000004,438.39496510000004,438.39496510000004,439.3950239999999,439.3950239999999,439.9124967,z,1,0.5079288000001725,None,01,001,2024-10-16_22h57.47.638,PSY310 Task4,2024.1.5,None,2024-10-16 22h58.08.227879 +0530,
-50,x,42,0,168,0,,,,,439.9283946999999,,439.9132483000001,439.9283946999999,440.9282324999999,440.9282324999999,440.9282324999999,440.9282324999999,440.9282324999999,441.92809869999996,441.92809869999996,442.4787395000001,x,1,0.5365781000000425,None,01,001,2024-10-16_22h57.47.638,PSY310 Task4,2024.1.5,None,2024-10-16 22h58.08.227879 +0530,
150,v,42,1,169,1,,,,,442.4947379,,442.4794747000001,442.4947379,443.47822040000005,443.47822040000005,443.47822040000005,443.47822040000005,443.49483409999993,444.49469210000007,444.49469210000007,445.0619058,v,1,0.551767800000107,None,01,001,2024-10-16_22h57.47.638,PSY310 Task4,2024.1.5,None,2024-10-16 22h58.08.227879 +0530,
50,c,42,2,170,2,,,,,445.0782517,,445.0626494999999,445.0782517,446.0779517000001,446.0779517000001,446.0779517000001,446.0779517000001,446.0779517000001,447.0613671000001,447.0613671000001,448.26215920000004,c,1,1.1928382000000965,None,01,001,2024-10-16_22h57.47.638,PSY310 Task4,2024.1.5,None,2024-10-16 22h58.08.227879 +0530,
-150,z,42,3,171,3,,,,,448.2779284999999,,448.2629357999999,448.2779284999999,449.27771630000007,449.27771630000007,449.27771630000007,449.27771630000007,449.27771630000007,450.2777327000001,450.2777327000001,453.2154295,z,1,2.9228094000000056,None,01,001,2024-10-16_22h57.47.638,PSY310 Task4,2024.1.5,None,2024-10-16 22h58.08.227879 +0530,
-50,x,43,0,172,0,,,,,453.2275216999999,,453.2175251000001,453.2275216999999,454.22733289999996,454.22733289999996,454.22733289999996,454.22733289999996,454.22733289999996,455.22744680000005,455.22744680000005,455.6783488000001,x,1,0.44804500000009284,None,01,001,2024-10-16_22h57.47.638,PSY310 Task4,2024.1.5,None,2024-10-16 22h58.08.227879 +0530,
150,v,43,1,173,1,,,,,455.69408279999993,,455.6791258999999,455.69408279999993,456.69387929999994,456.69387929999994,456.69387929999994,456.69387929999994,456.69387929999994,457.69382629999996,457.69382629999996,458.62772799999993,v,1,0.9278299000000061,None,01,001,2024-10-16_22h57.47.638,PSY310 Task4,2024.1.5,None,2024-10-16 22h58.08.227879 +0530,
50,c,43,2,174,2,,,,,458.6437638,,458.6284504,458.6437638,459.64372619999995,459.64372619999995,459.64372619999995,459.64372619999995,459.64372619999995,460.64365900000007,460.64365900000007,461.5109837,c,1,0.8624500999999327,None,01,001,2024-10-16_22h57.47.638,PSY310 Task4,2024.1.5,None,2024-10-16 22h58.08.227879 +0530,
-150,z,43,3,175,3,,,,,461.5268943000001,,461.5117336999999,461.5268943000001,462.52683060000004,462.52683060000004,462.52683060000004,462.52683060000004,462.52683060000004,463.52682860000004,463.52682860000004,464.1109071000001,z,1,0.5711903000001257,None,01,001,2024-10-16_22h57.47.638,PSY310 Task4,2024.1.5,None,2024-10-16 22h58.08.227879 +0530,
-50,x,44,0,176,0,,,,,464.1268659,,464.1116422,464.1268659,465.12686299999996,465.12686299999996,465.12686299999996,465.12686299999996,465.12686299999996,466.1265831999999,466.1265831999999,466.61059120000004,x,1,0.4700268999999935,None,01,001,2024-10-16_22h57.47.638,PSY310 Task4,2024.1.5,None,2024-10-16 22h58.08.227879 +0530,
150,v,44,1,177,1,,,,,466.62660299999993,,466.6113279000001,466.62660299999993,467.62660099999994,467.62660099999994,467.62660099999994,467.62660099999994,467.62660099999994,468.60979810000003,468.60979810000003,469.1941084,v,1,0.5783963000001222,None,01,001,2024-10-16_22h57.47.638,PSY310 Task4,2024.1.5,None,2024-10-16 22h58.08.227879 +0530,
50,c,44,2,178,2,,,,,469.20973660000004,,469.19485069999996,469.20973660000004,470.2097718,470.2097718,470.2097718,470.2097718,470.2097718,471.20964630000003,471.20964630000003,471.9105629999999,c,1,0.6942169000001286,None,01,001,2024-10-16_22h57.47.638,PSY310 Task4,2024.1.5,None,2024-10-16 22h58.08.227879 +0530,
-150,z,44,3,179,3,,,,,471.9264062,,471.9113351000001,471.9264062,472.9263836,472.9263836,472.9263836,472.9263836,472.9263836,473.92614950000007,473.92614950000007,474.32697529999996,z,1,0.38661369999999806,None,01,001,2024-10-16_22h57.47.638,PSY310 Task4,2024.1.5,None,2024-10-16 22h58.08.227879 +0530,
-50,x,45,0,180,0,,,,,474.34274890000006,,474.32772309999996,474.34274890000006,475.34270760000004,475.34270760000004,475.34270760000004,475.34270760000004,475.34270760000004,476.3427326000001,476.3427326000001,476.8434001999999,x,1,0.49146330000007765,None,01,001,2024-10-16_22h57.47.638,PSY310 Task4,2024.1.5,None,2024-10-16 22h58.08.227879 +0530,
150,v,45,1,181,1,,,,,476.8592476000001,,476.84414300000003,476.8592476000001,477.85923090000006,477.85923090000006,477.85923090000006,477.85923090000006,477.85923090000006,478.85923159999993,478.85923159999993,479.4432818,v,1,0.5740627999998651,None,01,001,2024-10-16_22h57.47.638,PSY310 Task4,2024.1.5,None,2024-10-16 22h58.08.227879 +0530,
50,c,45,2,182,2,,,,,479.4591716,,479.4440184,479.4591716,480.4592783999999,480.4592783999999,480.4592783999999,480.4592783999999,480.4592783999999,481.4589527999999,481.4589527999999,482.1096957,c,1,0.634903500000064,None,01,001,2024-10-16_22h57.47.638,PSY310 Task4,2024.1.5,None,2024-10-16 22h58.08.227879 +0530,
-150,z,45,3,183,3,,,,,482.1256195000001,,482.1104456999999,482.1256195000001,483.1255618,483.1255618,483.1255618,483.1255618,483.1255618,484.12558650000005,484.12558650000005,484.74293620000003,z,1,0.601414300000215,None,01,001,2024-10-16_22h57.47.638,PSY310 Task4,2024.1.5,None,2024-10-16 22h58.08.227879 +0530,
-50,x,46,0,184,0,,,,,484.75881460000005,,484.74369189999993,484.75881460000005,485.75876489999996,485.75876489999996,485.75876489999996,485.75876489999996,485.75876489999996,486.7588532,486.7588532,487.55943709999997,x,1,0.7839734000001499,None,01,001,2024-10-16_22h57.47.638,PSY310 Task4,2024.1.5,None,2024-10-16 22h58.08.227879 +0530,
150,v,46,1,185,1,,,,,487.57533910000006,,487.5601767999999,487.57533910000006,488.5754118,488.5754118,488.5754118,488.5754118,488.5754118,489.5753678000001,489.5753678000001,490.19275949999997,v,1,0.613792900000135,None,01,001,2024-10-16_22h57.47.638,PSY310 Task4,2024.1.5,None,2024-10-16 22h58.08.227879 +0530,
50,c,46,2,186,2,,,,,490.20851990000006,,490.1935358999999,490.20851990000006,491.2083889999999,491.2083889999999,491.2083889999999,491.2083889999999,491.2083889999999,492.2085155,492.2085155,492.9422285999999,c,1,0.720452000000023,None,01,001,2024-10-16_22h57.47.638,PSY310 Task4,2024.1.5,None,2024-10-16 22h58.08.227879 +0530,
-150,z,46,3,187,3,,,,,492.95828400000005,,492.9429609000001,492.95828400000005,493.9582525999999,493.9582525999999,493.9582525999999,493.9582525999999,493.9582525999999,494.95810359999996,494.95810359999996,495.5920928999999,z,1,0.6318512000000283,None,01,001,2024-10-16_22h57.47.638,PSY310 Task4,2024.1.5,None,2024-10-16 22h58.08.227879 +0530,
-50,x,47,0,188,0,,,,,495.60808629999997,,495.59280779999995,495.60808629999997,496.60814830000004,496.60814830000004,496.60814830000004,496.60814830000004,496.60814830000004,497.6079915,497.6079915,498.05866059999994,x,1,0.43449699999996483,None,01,001,2024-10-16_22h57.47.638,PSY310 Task4,2024.1.5,None,2024-10-16 22h58.08.227879 +0530,
150,v,47,1,189,1,,,,,498.07456490000004,,498.0593934000001,498.07456490000004,499.0747005999999,499.0747005999999,499.0747005999999,499.0747005999999,499.0747005999999,500.0746432000001,500.0746432000001,500.8919025,v,1,0.804629900000009,None,01,001,2024-10-16_22h57.47.638,PSY310 Task4,2024.1.5,None,2024-10-16 22h58.08.227879 +0530,
50,c,47,2,190,2,,,,,500.9078217000001,,500.8926365,500.9078217000001,501.9077291000001,501.9077291000001,501.9077291000001,501.9077291000001,501.9077291000001,502.90773480000007,502.90773480000007,503.4251306000001,c,1,0.5096461000000545,None,01,001,2024-10-16_22h57.47.638,PSY310 Task4,2024.1.5,None,2024-10-16 22h58.08.227879 +0530,
-150,z,47,3,191,3,,,,,503.4409915000001,,503.4258586000001,503.4409915000001,504.44099529999994,504.44099529999994,504.44099529999994,504.44099529999994,504.44099529999994,505.4410158999999,505.4410158999999,505.8250988,z,1,0.3819456999999602,None,01,001,2024-10-16_22h57.47.638,PSY310 Task4,2024.1.5,None,2024-10-16 22h58.08.227879 +0530,
-50,x,48,0,192,0,,,,,505.8407990999999,,505.82583709999994,505.8407990999999,506.84073209999997,506.84073209999997,506.84073209999997,506.84073209999997,506.84073209999997,507.8407548,507.8407548,508.32483049999996,x,1,0.4772494999999708,None,01,001,2024-10-16_22h57.47.638,PSY310 Task4,2024.1.5,None,2024-10-16 22h58.08.227879 +0530,
150,v,48,1,193,1,,,,,508.3407476,,508.3255690000001,508.3407476,509.34056480000004,509.34056480000004,509.34056480000004,509.34056480000004,509.34056480000004,510.34051539999996,510.34051539999996,510.8747085,v,1,0.5314998999999716,None,01,001,2024-10-16_22h57.47.638,PSY310 Task4,2024.1.5,None,2024-10-16 22h58.08.227879 +0530,
50,c,48,2,194,2,,,,,510.8904847000001,,510.875446,510.8904847000001,511.8904921999999,511.8904921999999,511.8904921999999,511.8904921999999,511.8904921999999,512.8903883,512.8903883,513.3243831,c,1,0.4321196000000782,None,01,001,2024-10-16_22h57.47.638,PSY310 Task4,2024.1.5,None,2024-10-16 22h58.08.227879 +0530,
-150,z,48,3,195,3,,,,,513.3403579999999,,513.3251267,513.3403579999999,514.3403195999999,514.3403195999999,514.3403195999999,514.3403195999999,514.3403195999999,515.3402668000001,515.3402668000001,515.7409970000001,z,1,0.3981917999999496,None,01,001,2024-10-16_22h57.47.638,PSY310 Task4,2024.1.5,None,2024-10-16 22h58.08.227879 +0530,
-50,x,49,0,196,0,,,,,515.7568701,,515.7417181999999,515.7568701,516.7569348,516.7569348,516.7569348,516.7569348,516.7569348,517.7566836999999,517.7566836999999,518.1741486999999,x,1,0.41458749999992506,None,01,001,2024-10-16_22h57.47.638,PSY310 Task4,2024.1.5,None,2024-10-16 22h58.08.227879 +0530,
150,v,49,1,197,1,,,,,518.1899665000001,,518.1748863,518.1899665000001,519.1900131,519.1900131,519.1900131,519.1900131,519.1900131,520.1902015000001,520.1902015000001,520.5742645,v,1,0.3757484000000204,None,01,001,2024-10-16_22h57.47.638,PSY310 Task4,2024.1.5,None,2024-10-16 22h58.08.227879 +0530,
50,c,49,2,198,2,,,,,520.5900824,,520.5749993,520.5900824,521.5898631,521.5898631,521.5898631,521.5898631,521.5898631,522.5897548,522.5897548,523.1237507000001,c,1,0.5183984000000237,None,01,001,2024-10-16_22h57.47.638,PSY310 Task4,2024.1.5,None,2024-10-16 22h58.08.227879 +0530,
-150,z,49,3,199,3,,,,,523.1397351,,523.1244878,523.1397351,524.1397873999999,524.1397873999999,524.1397873999999,524.1397873999999,524.1397873999999,525.1396574,525.1396574,525.6069289,z,1,0.45646770000007564,None,01,001,2024-10-16_22h57.47.638,PSY310 Task4,2024.1.5,None,2024-10-16 22h58.08.227879 +0530,
150,v,,,,,0,0,0,1,525.6229166999999,,525.6116681000001,525.6229166999999,526.6229126000001,526.6229126000001,526.6229126000001,526.6229126000001,526.6229126000001,527.6227905000001,527.6227905000001,528.2902409000001,v,1,0.662998000000016,None,01,001,2024-10-16_22h57.47.638,PSY310 Task4,2024.1.5,None,2024-10-16 22h58.08.227879 +0530,
-150,z,,,,,0,1,1,3,528.3060958000001,,528.2912167,528.3060958000001,529.3060048,529.3060048,529.3060048,529.3060048,529.3060048,530.3059788,530.3059788,530.7570014,z,1,0.4370752999998331,None,01,001,2024-10-16_22h57.47.638,PSY310 Task4,2024.1.5,None,2024-10-16 22h58.08.227879 +0530,
150,v,,,,,0,2,2,1,530.7725771,,530.757795,530.7725771,531.7727848,531.7727848,531.7727848,531.7727848,531.7727848,532.7726199000001,532.7726199000001,533.3896735000001,v,1,0.6143382999998721,None,01,001,2024-10-16_22h57.47.638,PSY310 Task4,2024.1.5,None,2024-10-16 22h58.08.227879 +0530,
150,v,,,,,0,3,3,1,533.4057206,,533.3904367,533.4057206,534.4056943999999,534.4056943999999,534.4056943999999,534.4056943999999,534.4056943999999,535.4056513,535.4056513,536.0230569,v,1,0.6075239000001602,None,01,001,2024-10-16_22h57.47.638,PSY310 Task4,2024.1.5,None,2024-10-16 22h58.08.227879 +0530,
-50,x,,,,,1,0,4,0,536.0390102000001,,536.0237947999999,536.0390102000001,537.0390212,537.0390212,537.0390212,537.0390212,537.0390212,538.0389479,538.0389479,538.6730663999999,x,1,0.6269485000000259,None,01,001,2024-10-16_22h57.47.638,PSY310 Task4,2024.1.5,None,2024-10-16 22h58.08.227879 +0530,
150,v,,,,,1,1,5,1,538.6887231999999,,538.6738436,538.6887231999999,539.6887714,539.6887714,539.6887714,539.6887714,539.6887714,540.6889004,540.6889004,541.1563911999999,v,1,0.4619890999999825,None,01,001,2024-10-16_22h57.47.638,PSY310 Task4,2024.1.5,None,2024-10-16 22h58.08.227879 +0530,
150,v,,,,,1,2,6,1,541.1722405999999,,541.1573656999999,541.1722405999999,542.1718977999999,542.1718977999999,542.1718977999999,542.1718977999999,542.1718977999999,543.1718175999999,543.1718175999999,543.6061788,v,1,0.43360580000012305,None,01,001,2024-10-16_22h57.47.638,PSY310 Task4,2024.1.5,None,2024-10-16 22h58.08.227879 +0530,
-50,x,,,,,1,3,7,0,543.6217823,,543.6072311,543.6217823,544.6218589,544.6218589,544.6218589,544.6218589,544.6218589,545.621658,545.621658,546.3390729,x,1,0.7007625999999618,None,01,001,2024-10-16_22h57.47.638,PSY310 Task4,2024.1.5,None,2024-10-16 22h58.08.227879 +0530,
-50,x,,,,,2,0,8,0,546.3549471000001,,546.3398033999999,546.3549471000001,547.3549324,547.3549324,547.3549324,547.3549324,547.3549324,548.3549949000001,548.3549949000001,548.8723977,x,1,0.5091781999999512,None,01,001,2024-10-16_22h57.47.638,PSY310 Task4,2024.1.5,None,2024-10-16 22h58.08.227879 +0530,
150,v,,,,,2,1,9,1,548.8882601,,548.8731531999999,548.8882601,549.8881914000001,549.8881914000001,549.8881914000001,549.8881914000001,549.8881914000001,550.8882891999999,550.8882891999999,551.4726757000001,v,1,0.5808554000000186,None,01,001,2024-10-16_22h57.47.638,PSY310 Task4,2024.1.5,None,2024-10-16 22h58.08.227879 +0530,
-50,x,,,,,2,2,10,0,551.4880989000001,,551.4734215000001,551.4880989000001,552.4879900999999,552.4879900999999,552.4879900999999,552.4879900999999,552.4879900999999,553.4878808999999,553.4878808999999,554.0720249000001,x,1,0.5728368999998565,None,01,001,2024-10-16_22h57.47.638,PSY310 Task4,2024.1.5,None,2024-10-16 22h58.08.227879 +0530,
150,v,,,,,2,3,11,1,554.0881858,,554.0728001,554.0881858,555.0881485,555.0881485,555.0881485,555.0881485,555.0881485,556.0876946000001,556.0876946000001,556.45513,v,1,0.3628676999999243,None,01,001,2024-10-16_22h57.47.638,PSY310 Task4,2024.1.5,None,2024-10-16 22h58.08.227879 +0530,
50,c,,,,,3,0,12,2,556.4710622,,556.4558787999999,556.4710622,557.4709731,557.4709731,557.4709731,557.4709731,557.4709731,558.4709310000001,558.4709310000001,558.9724364000001,c,1,0.48415979999981573,None,01,001,2024-10-16_22h57.47.638,PSY310 Task4,2024.1.5,None,2024-10-16 22h58.08.227879 +0530,
-150,z,,,,,3,1,13,3,558.9876045999999,,558.9742209000001,558.9876045999999,559.9878695,559.9878695,559.9878695,559.9878695,559.9878695,560.9873966,560.9873966,561.3886190999999,z,1,0.3871918999998343,None,01,001,2024-10-16_22h57.47.638,PSY310 Task4,2024.1.5,None,2024-10-16 22h58.08.227879 +0530,
150,v,,,,,3,2,14,1,561.4042588,,561.3893817999999,561.4042588,562.4039818000001,562.4039818000001,562.4039818000001,562.4039818000001,562.4039818000001,563.4039918000001,563.4039918000001,563.7879846000001,v,1,0.37426269999991746,None,01,001,2024-10-16_22h57.47.638,PSY310 Task4,2024.1.5,None,2024-10-16 22h58.08.227879 +0530,
-150,z,,,,,3,3,15,3,563.8039338000001,,563.7887278000001,563.8039338000001,564.8039834000001,564.8039834000001,564.8039834000001,564.8039834000001,564.8039834000001,565.8037402,565.8037402,566.1877823,z,1,0.37662440000008246,None,01,001,2024-10-16_22h57.47.638,PSY310 Task4,2024.1.5,None,2024-10-16 22h58.08.227879 +0530,
-150,z,,,,,4,0,16,3,566.2036852000001,,566.1885228000001,566.2036852000001,567.2037118000001,567.2037118000001,567.2037118000001,567.2037118000001,567.2037118000001,568.2036802,568.2036802,568.6383894999999,z,1,0.42640879999999015,None,01,001,2024-10-16_22h57.47.638,PSY310 Task4,2024.1.5,None,2024-10-16 22h58.08.227879 +0530,
50,c,,,,,4,1,17,2,568.6539332,,568.6391351,568.6539332,569.6535928000001,569.6535928000001,569.6535928000001,569.6535928000001,569.6535928000001,570.6535157999999,570.6535157999999,571.2208664,c,1,0.5564460000000508,None,01,001,2024-10-16_22h57.47.638,PSY310 Task4,2024.1.5,None,2024-10-16 22h58.08.227879 +0530,
-150,z,,,,,4,2,18,3,571.2369306999999,,571.2217857999999,571.2369306999999,572.2368653999999,572.2368653999999,572.2368653999999,572.2368653999999,572.2368653999999,573.2367160000001,573.2367160000001,573.6207221,z,1,0.3757395000000088,None,01,001,2024-10-16_22h57.47.638,PSY310 Task4,2024.1.5,None,2024-10-16 22h58.08.227879 +0530,
-50,x,,,,,4,3,19,0,573.6366696,,573.6214241,573.6366696,574.6365584,574.6365584,574.6365584,574.6365584,574.6365584,575.6364896,575.6364896,576.1372623,x,1,0.4906976999998278,None,01,001,2024-10-16_22h57.47.638,PSY310 Task4,2024.1.5,None,2024-10-16 22h58.08.227879 +0530,
150,v,,,,,5,0,20,1,576.1531563000001,,576.1380117000001,576.1531563000001,577.1531344,577.1531344,577.1531344,577.1531344,577.1531344,578.1533059000001,578.1533059000001,578.9372198000001,v,1,0.7798402999999325,None,01,001,2024-10-16_22h57.47.638,PSY310 Task4,2024.1.5,None,2024-10-16 22h58.08.227879 +0530,
-50,x,,,,,5,1,21,0,578.9529358,,578.937962,578.9529358,579.9530007999999,579.9530007999999,579.9530007999999,579.9530007999999,579.9530007999999,580.9529205000001,580.9529205000001,581.4869248,x,1,0.526474300000018,None,01,001,2024-10-16_22h57.47.638,PSY310 Task4,2024.1.5,None,2024-10-16 22h58.08.227879 +0530,
50,c,,,,,5,2,22,2,581.5028973999999,,581.4876631,581.5028973999999,582.5029377000001,582.5029377000001,582.5029377000001,582.5029377000001,582.5029377000001,583.5026875000001,583.5026875000001,584.1035435000001,c,1,0.5924193999999261,None,01,001,2024-10-16_22h57.47.638,PSY310 Task4,2024.1.5,None,2024-10-16 22h58.08.227879 +0530,
150,v,,,,,5,3,23,1,584.1192768999999,,584.1043537,584.1192768999999,585.1194484,585.1194484,585.1194484,585.1194484,585.1194484,586.1192962,586.1192962,586.7198238000001,v,1,0.5933142000001226,None,01,001,2024-10-16_22h57.47.638,PSY310 Task4,2024.1.5,None,2024-10-16 22h58.08.227879 +0530,
150,v,,,,,6,0,24,1,586.7357773000001,,586.7205917000001,586.7357773000001,587.7357465,587.7357465,587.7357465,587.7357465,587.7357465,588.7357156999999,588.7357156999999,589.2367168999999,v,1,0.49632180000003245,None,01,001,2024-10-16_22h57.47.638,PSY310 Task4,2024.1.5,None,2024-10-16 22h58.08.227879 +0530,
50,c,,,,,6,1,25,2,589.2523862,,589.2374606000001,589.2523862,590.2527047000001,590.2527047000001,590.2527047000001,590.2527047000001,590.2527047000001,591.2522306000001,591.2522306000001,591.6863366,c,1,0.4252458999999362,None,01,001,2024-10-16_22h57.47.638,PSY310 Task4,2024.1.5,None,2024-10-16 22h58.08.227879 +0530,
-50,x,,,,,6,2,26,0,591.7022075,,591.6870825000001,591.7022075,592.702088,592.702088,592.702088,592.702088,592.702088,593.7021661000001,593.7021661000001,594.1362303999999,x,1,0.4180619999999635,None,01,001,2024-10-16_22h57.47.638,PSY310 Task4,2024.1.5,None,2024-10-16 22h58.08.227879 +0530,
50,c,,,,,6,3,27,2,594.1521435,,594.1369770000001,594.1521435,595.1519681,595.1519681,595.1519681,595.1519681,595.1519681,596.1518831000001,596.1518831000001,596.6368500000001,c,1,0.4709207000000788,None,01,001,2024-10-16_22h57.47.638,PSY310 Task4,2024.1.5,None,2024-10-16 22h58.08.227879 +0530,
-150,z,,,,,7,0,28,3,596.6519031,,596.6375983,596.6519031,597.6519095000001,597.6519095000001,597.6519095000001,597.6519095000001,597.6519095000001,598.6518825999999,598.6518825999999,599.1859002000001,z,1,0.5217210999999224,None,01,001,2024-10-16_22h57.47.638,PSY310 Task4,2024.1.5,None,2024-10-16 22h58.08.227879 +0530,
50,c,,,,,7,1,29,2,599.2019327,,599.1866402,599.2019327,600.2016604,600.2016604,600.2016604,600.2016604,600.2016604,601.2016347000001,601.2016347000001,601.7357121,c,1,0.5272219999999379,None,01,001,2024-10-16_22h57.47.638,PSY310 Task4,2024.1.5,None,2024-10-16 22h58.08.227879 +0530,
150,v,,,,,7,2,30,1,601.75162,,601.7364556,601.75162,602.7515295000001,602.7515295000001,602.7515295000001,602.7515295000001,602.7515295000001,603.7514418000001,603.7514418000001,604.3022278999999,v,1,0.5386599999999362,None,01,001,2024-10-16_22h57.47.638,PSY310 Task4,2024.1.5,None,2024-10-16 22h58.08.227879 +0530,
150,v,,,,,7,3,31,1,604.3181237000001,,604.3029796999999,604.3181237000001,605.3180162000001,605.3180162000001,605.3180162000001,605.3180162000001,605.3180162000001,606.3180568,606.3180568,606.8520646,v,1,0.5170286000000033,None,01,001,2024-10-16_22h57.47.638,PSY310 Task4,2024.1.5,None,2024-10-16 22h58.08.227879 +0530,
150,v,,,,,8,0,32,1,606.8680240000001,,606.8528136,606.8680240000001,607.8679036999999,607.8679036999999,607.8679036999999,607.8679036999999,607.8679036999999,608.8678823,608.8678823,609.4518444,v,1,0.5707196999999269,None,01,001,2024-10-16_22h57.47.638,PSY310 Task4,2024.1.5,None,2024-10-16 22h58.08.227879 +0530,
50,c,,,,,8,1,33,2,609.4677736000001,,609.4525840000001,609.4677736000001,610.4678379,610.4678379,610.4678379,610.4678379,610.4678379,611.4676664000001,611.4676664000001,611.9350669,c,1,0.45820640000010826,None,01,001,2024-10-16_22h57.47.638,PSY310 Task4,2024.1.5,None,2024-10-16 22h58.08.227879 +0530,
-50,x,,,,,8,2,34,0,611.9508589,,611.9358317000001,611.9508589,612.9508292,612.9508292,612.9508292,612.9508292,612.9508292,613.9508182,613.9508182,614.6183245,x,1,0.6587875000000167,None,01,001,2024-10-16_22h57.47.638,PSY310 Task4,2024.1.5,None,2024-10-16 22h58.08.227879 +0530,
-50,x,,,,,8,3,35,0,614.6340292,,614.6190965000001,614.6340292,615.6339945,615.6339945,615.6339945,615.6339945,615.6339945,616.6339212,616.6339212,617.0515217,x,1,0.4154905999998846,None,01,001,2024-10-16_22h57.47.638,PSY310 Task4,2024.1.5,None,2024-10-16 22h58.08.227879 +0530,
-50,x,,,,,9,0,36,0,617.067368,,617.0523074,617.067368,618.069986,618.069986,618.069986,618.069986,618.069986,619.0671423000001,619.0671423000001,619.6178789999999,x,1,0.5369508999999653,None,01,001,2024-10-16_22h57.47.638,PSY310 Task4,2024.1.5,None,2024-10-16 22h58.08.227879 +0530,
-50,x,,,,,9,1,37,0,619.6338132000001,,619.6190726,619.6338132000001,620.6337427999999,620.6337427999999,620.6337427999999,620.6337427999999,620.6337427999999,621.6337748000001,621.6337748000001,622.0683799999999,x,1,0.4262271000000055,None,01,001,2024-10-16_22h57.47.638,PSY310 Task4,2024.1.5,None,2024-10-16 22h58.08.227879 +0530,
50,c,,,,,9,2,38,2,622.0836412000001,,622.0691526,622.0836412000001,623.0837693999999,623.0837693999999,623.0837693999999,623.0837693999999,623.0837693999999,624.0834201,624.0834201,624.6340878999999,c,1,0.5388344000000416,None,01,001,2024-10-16_22h57.47.638,PSY310 Task4,2024.1.5,None,2024-10-16 22h58.08.227879 +0530,
150,v,,,,,9,3,39,1,624.6501020000001,,624.6348704,624.6501020000001,625.6501602000001,625.6501602000001,625.6501602000001,625.6501602000001,625.6501602000001,626.6502102,626.6502102,627.2841701,v,1,0.6247928000000229,None,01,001,2024-10-16_22h57.47.638,PSY310 Task4,2024.1.5,None,2024-10-16 22h58.08.227879 +0530,
150,v,,,,,10,0,40,1,627.3000109,,627.2849322,627.3000109,628.2999901999999,628.2999901999999,628.2999901999999,628.2999901999999,628.2999901999999,629.2999047000001,629.2999047000001,629.8008104999999,v,1,0.4983473999998296,None,01,001,2024-10-16_22h57.47.638,PSY310 Task4,2024.1.5,None,2024-10-16 22h58.08.227879 +0530,
150,v,,,,,10,1,41,1,629.8166593999999,,629.8015654999999,629.8166593999999,630.8164575000001,630.8164575000001,630.8164575000001,630.8164575000001,630.8164575000001,631.8163861,631.8163861,632.3335724000001,v,1,0.5008843999999044,None,01,001,2024-10-16_22h57.47.638,PSY310 Task4,2024.1.5,None,2024-10-16 22h58.08.227879 +0530,
-150,z,,,,,10,2,42,3,632.3496653,,632.3343090000001,632.3496653,633.3497321,633.3497321,633.3497321,633.3497321,633.3497321,634.3495545999999,634.3495545999999,635.0336847000001,z,1,0.6802069000000301,None,01,001,2024-10-16_22h57.47.638,PSY310 Task4,2024.1.5,None,2024-10-16 22h58.08.227879 +0530,
50,c,,,,,10,3,43,2,635.0495275000001,,635.0344328000001,635.0495275000001,636.0495126999999,636.0495126999999,636.0495126999999,636.0495126999999,636.0495126999999,637.0493054000001,637.0493054000001,637.5335078999999,c,1,0.4683035000000473,None,01,001,2024-10-16_22h57.47.638,PSY310 Task4,2024.1.5,None,2024-10-16 22h58.08.227879 +0530,
50,c,,,,,11,0,44,2,637.54937,,637.5342816,637.54937,638.5494091999999,638.5494091999999,638.5494091999999,638.5494091999999,638.5494091999999,639.5492397999999,639.5492397999999,640.4332076000001,c,1,0.8820364000000609,None,01,001,2024-10-16_22h57.47.638,PSY310 Task4,2024.1.5,None,2024-10-16 22h58.08.227879 +0530,
-50,x,,,,,11,1,45,0,640.4490960999999,,640.4339551,640.4490960999999,641.4490831,641.4490831,641.4490831,641.4490831,641.4490831,642.4493024999999,642.4493024999999,642.966492,x,1,0.5103851999999733,None,01,001,2024-10-16_22h57.47.638,PSY310 Task4,2024.1.5,None,2024-10-16 22h58.08.227879 +0530,
150,v,,,,,11,2,46,1,642.9825880999999,,642.9672390000001,642.9825880999999,643.9823859,643.9823859,643.9823859,643.9823859,643.9823859,644.9822354,644.9822354,645.3996815,v,1,0.41159920000018246,None,01,001,2024-10-16_22h57.47.638,PSY310 Task4,2024.1.5,None,2024-10-16 22h58.08.227879 +0530,
-50,x,,,,,11,3,47,0,645.4156473999999,,645.4004407,645.4156473999999,646.4155777000001,646.4155777000001,646.4155777000001,646.4155777000001,646.4155777000001,647.4153983000001,647.4153983000001,648.0338151999999,x,1,0.6135593999999855,None,01,001,2024-10-16_22h57.47.638,PSY310 Task4,2024.1.5,None,2024-10-16 22h58.08.227879 +0530,
-150,z,,,,,12,0,48,3,648.0487119,,648.0349633999999,648.0487119,649.048734,649.048734,649.048734,649.048734,649.048734,650.0486843000001,650.0486843000001,650.4325836,z,1,0.37860730000011245,None,01,001,2024-10-16_22h57.47.638,PSY310 Task4,2024.1.5,None,2024-10-16 22h58.08.227879 +0530,
-50,x,,,,,12,1,49,0,650.4486013999999,,650.4339348999999,650.4486013999999,651.4485729999999,651.4485729999999,651.4485729999999,651.4485729999999,651.4485729999999,652.4484894,652.4484894,653.0158595,x,1,0.5593163000000914,None,01,001,2024-10-16_22h57.47.638,PSY310 Task4,2024.1.5,None,2024-10-16 22h58.08.227879 +0530,
-50,x,,,,,12,2,50,0,653.0317709999999,,653.0166217999999,653.0317709999999,654.0316723999999,654.0316723999999,654.0316723999999,654.0316723999999,654.0316723999999,655.0315839,655.0315839,655.4322766,x,1,0.3880996000000323,None,01,001,2024-10-16_22h57.47.638,PSY310 Task4,2024.1.5,None,2024-10-16 22h58.08.227879 +0530,
-150,z,,,,,12,3,51,3,655.4481883000001,,655.4330342000001,655.4481883000001,656.4315931000001,656.4315931000001,656.4315931000001,656.4315931000001,656.4481482000001,657.4483455,657.4483455,658.1321639,z,1,0.6737258000000566,None,01,001,2024-10-16_22h57.47.638,PSY310 Task4,2024.1.5,None,2024-10-16 22h58.08.227879 +0530,
-50,x,,,,,13,0,52,0,658.1481351,,658.1328736,658.1481351,659.1479453,659.1479453,659.1479453,659.1479453,659.1479453,660.1478168000001,660.1478168000001,660.5985441,x,1,0.4473242999999911,None,01,001,2024-10-16_22h57.47.638,PSY310 Task4,2024.1.5,None,2024-10-16 22h58.08.227879 +0530,
-150,z,,,,,13,1,53,3,660.6146384000001,,660.5992739999999,660.6146384000001,661.614595,661.614595,661.614595,661.614595,661.614595,662.614714,662.614714,663.0986874,z,1,0.481247200000098,None,01,001,2024-10-16_22h57.47.638,PSY310 Task4,2024.1.5,None,2024-10-16 22h58.08.227879 +0530,
50,c,,,,,13,2,54,2,663.1144544000001,,663.0994591000001,663.1144544000001,664.1143674,664.1143674,664.1143674,664.1143674,664.1143674,665.1143429000001,665.1143429000001,665.5486606,c,1,0.4281562999999551,None,01,001,2024-10-16_22h57.47.638,PSY310 Task4,2024.1.5,None,2024-10-16 22h58.08.227879 +0530,
150,v,,,,,13,3,55,1,665.5643207,,665.5497419000001,665.5643207,666.5643931,666.5643931,666.5643931,666.5643931,666.5643931,667.5640760000001,667.5640760000001,668.0482153,v,1,0.483076199999914,None,01,001,2024-10-16_22h57.47.638,PSY310 Task4,2024.1.5,None,2024-10-16 22h58.08.227879 +0530,
-50,x,,,,,14,0,56,0,668.0641335,,668.048994,668.0641335,669.0640544,669.0640544,669.0640544,669.0640544,669.0640544,670.0640880000001,670.0640880000001,670.4980791,x,1,0.42607300000008763,None,01,001,2024-10-16_22h57.47.638,PSY310 Task4,2024.1.5,None,2024-10-16 22h58.08.227879 +0530,
-150,z,,,,,14,1,57,3,670.5140670000001,,670.4988255999999,670.5140670000001,671.5138297999999,671.5138297999999,671.5138297999999,671.5138297999999,671.5138297999999,672.5138552999999,672.5138552999999,673.0646312000001,z,1,0.5398542999998881,None,01,001,2024-10-16_22h57.47.638,PSY310 Task4,2024.1.5,None,2024-10-16 22h58.08.227879 +0530,
150,v,,,,,14,2,58,1,673.0804644,,673.0653483000001,673.0804644,674.0806356,674.0806356,674.0806356,674.0806356,674.0806356,675.0803649,675.0803649,675.5644439,v,1,0.4799651000000722,None,01,001,2024-10-16_22h57.47.638,PSY310 Task4,2024.1.5,None,2024-10-16 22h58.08.227879 +0530,
50,c,,,,,14,3,59,2,675.5803105,,675.5652063,675.5803105,676.5802624,676.5802624,676.5802624,676.5802624,676.5802624,677.5803281000001,677.5803281000001,677.947694,c,1,0.3589297000000897,None,01,001,2024-10-16_22h57.47.638,PSY310 Task4,2024.1.5,None,2024-10-16 22h58.08.227879 +0530,
150,v,,,,,15,0,60,1,677.9635943000001,,677.9484496,677.9635943000001,678.9634406,678.9634406,678.9634406,678.9634406,678.9634406,679.9633727,679.9633727,680.4808149,v,1,0.5019479000000047,None,01,001,2024-10-16_22h57.47.638,PSY310 Task4,2024.1.5,None,2024-10-16 22h58.08.227879 +0530,
50,c,,,,,15,1,61,2,680.4966907999999,,680.4815633999999,680.4966907999999,681.4966546,681.4966546,681.4966546,681.4966546,681.4966546,682.4966340999999,682.4966340999999,683.1643444000001,x,0,0.6619894999998905,None,01,001,2024-10-16_22h57.47.638,PSY310 Task4,2024.1.5,None,2024-10-16 22h58.08.227879 +0530,
150,v,,,,,15,2,62,1,683.1799713,,683.1653057999999,683.1799713,684.1798769,684.1798769,684.1798769,684.1798769,684.1798769,685.1798437,685.1798437,685.6971592,v,1,0.5059201999999914,None,01,001,2024-10-16_22h57.47.638,PSY310 Task4,2024.1.5,None,2024-10-16 22h58.08.227879 +0530,
150,v,,,,,15,3,63,1,685.7131374,,685.6979169000001,685.7131374,686.7129325999999,686.7129325999999,686.7129325999999,686.7129325999999,686.7129325999999,687.7133265,687.7133265,688.0803238999999,v,1,0.3602683999999954,None,01,001,2024-10-16_22h57.47.638,PSY310 Task4,2024.1.5,None,2024-10-16 22h58.08.227879 +0530,
-150,z,,,,,16,0,64,3,688.0962413,,688.0811755,688.0962413,689.0962050999999,689.0962050999999,689.0962050999999,689.0962050999999,689.0962050999999,690.0961373,690.0961373,690.6634535000001,z,1,0.5640296999999919,None,01,001,2024-10-16_22h57.47.638,PSY310 Task4,2024.1.5,None,2024-10-16 22h58.08.227879 +0530,
-50,x,,,,,16,1,65,0,690.6793419,,690.6642064,690.6793419,691.6792954,691.6792954,691.6792954,691.6792954,691.6792954,692.6793217,692.6793217,693.3299254000001,x,1,0.6373708000000988,None,01,001,2024-10-16_22h57.47.638,PSY310 Task4,2024.1.5,None,2024-10-16 22h58.08.227879 +0530,
-50,x,,,,,16,2,66,0,693.3459275,,693.3306708,693.3459275,694.3292988999999,694.3292988999999,694.3292988999999,694.3292988999999,694.3460589000001,695.3457936,695.3457936,695.7298917,x,1,0.3691529000000173,None,01,001,2024-10-16_22h57.47.638,PSY310 Task4,2024.1.5,None,2024-10-16 22h58.08.227879 +0530,
50,c,,,,,16,3,67,2,695.7457068000001,,695.7306237,695.7457068000001,696.7457399,696.7457399,696.7457399,696.7457399,696.7457399,697.7456967,697.7456967,698.1468726999999,c,1,0.38745920000019396,None,01,001,2024-10-16_22h57.47.638,PSY310 Task4,2024.1.5,None,2024-10-16 22h58.08.227879 +0530,
-150,z,,,,,17,0,68,3,698.1624787000001,,698.1478063,698.1624787000001,699.1621504,699.1621504,699.1621504,699.1621504,699.1621504,700.1623852,700.1623852,700.9300079,z,1,0.7653954999998405,None,01,001,2024-10-16_22h57.47.638,PSY310 Task4,2024.1.5,None,2024-10-16 22h58.08.227879 +0530,
150,v,,,,,17,1,69,1,700.9456282000001,,700.9308813,700.9456282000001,701.9455297,701.9455297,701.9455297,701.9455297,701.9455297,702.9453384999999,702.9453384999999,703.5137027999999,v,1,0.5540091000000302,None,01,001,2024-10-16_22h57.47.638,PSY310 Task4,2024.1.5,None,2024-10-16 22h58.08.227879 +0530,
150,v,,,,,17,2,70,1,703.5287045,,703.5147449000001,703.5287045,704.5285778,704.5285778,704.5285778,704.5285778,704.5285778,705.5286598,705.5286598,705.9960441999999,v,1,0.46231060000013713,None,01,001,2024-10-16_22h57.47.638,PSY310 Task4,2024.1.5,None,2024-10-16 22h58.08.227879 +0530,
-150,z,,,,,17,3,71,3,706.0118967000001,,705.9968882000001,706.0118967000001,707.0119209,707.0119209,707.0119209,707.0119209,707.0119209,708.0117577999999,708.0117577999999,708.6629608999999,z,1,0.637727600000062,None,01,001,2024-10-16_22h57.47.638,PSY310 Task4,2024.1.5,None,2024-10-16 22h58.08.227879 +0530,
-150,z,,,,,18,0,72,3,708.6783178000001,,708.6638453,708.6783178000001,709.6783339000001,709.6783339000001,709.6783339000001,709.6783339000001,709.6783339000001,710.6782857000001,710.6782857000001,711.4456989,z,1,0.7580821999999898,None,01,001,2024-10-16_22h57.47.638,PSY310 Task4,2024.1.5,None,2024-10-16 22h58.08.227879 +0530,
150,v,,,,,18,1,73,1,711.4615128,,711.4465713,711.4615128,712.4615325,712.4615325,712.4615325,712.4615325,712.4615325,713.4617791999999,713.4617791999999,713.9289031000001,v,1,0.4499499000000924,None,01,001,2024-10-16_22h57.47.638,PSY310 Task4,2024.1.5,None,2024-10-16 22h58.08.227879 +0530,
-50,x,,,,,18,2,74,0,713.9448573,,713.9297591,713.9448573,714.9446859,714.9446859,714.9446859,714.9446859,714.9446859,715.9446531000001,715.9446531000001,716.6454335000001,x,1,0.6856913999999961,None,01,001,2024-10-16_22h57.47.638,PSY310 Task4,2024.1.5,None,2024-10-16 22h58.08.227879 +0530,
50,c,,,,,18,3,75,2,716.6610897,,716.6463566,716.6610897,717.6611424,717.6611424,717.6611424,717.6611424,717.6611424,718.6611664,718.6611664,719.2119322000001,c,1,0.5446937000001526,None,01,001,2024-10-16_22h57.47.638,PSY310 Task4,2024.1.5,None,2024-10-16 22h58.08.227879 +0530,
-50,x,,,,,19,0,76,0,719.2277389999999,,719.2128493,719.2277389999999,720.2276053,720.2276053,720.2276053,720.2276053,720.2276053,721.2276523999999,721.2276523999999,721.6620709000001,x,1,0.42846289999988585,None,01,001,2024-10-16_22h57.47.638,PSY310 Task4,2024.1.5,None,2024-10-16 22h58.08.227879 +0530,
-150,z,,,,,19,1,77,3,721.6776616,,721.6631434000001,721.6776616,722.6776339999999,722.6776339999999,722.6776339999999,722.6776339999999,722.6776339999999,723.6775275,723.6775275,724.3116677,z,1,0.6198735999998917,None,01,001,2024-10-16_22h57.47.638,PSY310 Task4,2024.1.5,None,2024-10-16 22h58.08.227879 +0530,
-150,z,,,,,19,2,78,3,724.3274386,,724.3125603999999,724.3274386,725.3272264,725.3272264,725.3272264,725.3272264,725.3272264,726.3107236999999,726.3107236999999,726.8288101999999,z,1,0.5165171999999529,None,01,001,2024-10-16_22h57.47.638,PSY310 Task4,2024.1.5,None,2024-10-16 22h58.08.227879 +0530,
-150,z,,,,,19,3,79,3,726.8440009999999,,726.8297461,726.8440009999999,727.8437854000001,727.8437854000001,727.8437854000001,727.8437854000001,727.8437854000001,728.8436386000001,728.8436386000001,729.4113854,z,1,0.5571091000001616,None,01,001,2024-10-16_22h57.47.638,PSY310 Task4,2024.1.5,None,2024-10-16 22h58.08.227879 +0530,
150,v,,,,,20,0,80,1,729.427115,,729.4122115,729.427115,730.4270888000001,730.4270888000001,730.4270888000001,730.4270888000001,730.4270888000001,731.4269094000001,731.4269094000001,731.9615471,v,1,0.5335543000001053,None,01,001,2024-10-16_22h57.47.638,PSY310 Task4,2024.1.5,None,2024-10-16 22h58.08.227879 +0530,
-150,z,,,,,20,1,81,3,731.9769749,,731.9624431,731.9769749,732.9769550000001,732.9769550000001,732.9769550000001,732.9769550000001,732.9769550000001,733.9769513000001,733.9769513000001,734.5610719000001,z,1,0.575487800000019,None,01,001,2024-10-16_22h57.47.638,PSY310 Task4,2024.1.5,None,2024-10-16 22h58.08.227879 +0530,
-50,x,,,,,20,2,82,0,734.5768347999999,,734.5619216,734.5768347999999,735.5765937000001,735.5765937000001,735.5765937000001,735.5765937000001,735.5765937000001,736.5766329,736.5766329,737.2442457,x,1,0.6535617999998067,None,01,001,2024-10-16_22h57.47.638,PSY310 Task4,2024.1.5,None,2024-10-16 22h58.08.227879 +0530,
-50,x,,,,,20,3,83,0,737.2600170000001,,737.2451093,737.2600170000001,738.2601342,738.2601342,738.2601342,738.2601342,738.2601342,739.2597565000001,739.2597565000001,740.1440716,x,1,0.8786742999998296,None,01,001,2024-10-16_22h57.47.638,PSY310 Task4,2024.1.5,None,2024-10-16 22h58.08.227879 +0530,
-50,x,,,,,21,0,84,0,740.1596884,,740.1450067999999,740.1596884,741.1598859000001,741.1598859000001,741.1598859000001,741.1598859000001,741.1598859000001,742.1598326000001,742.1598326000001,742.7104755,x,1,0.5386432000000241,None,01,001,2024-10-16_22h57.47.638,PSY310 Task4,2024.1.5,None,2024-10-16 22h58.08.227879 +0530,
-150,z,,,,,21,1,85,3,742.7262932000001,,742.7113786,742.7262932000001,743.7262215999999,743.7262215999999,743.7262215999999,743.7262215999999,743.7262215999999,744.7261345,744.7261345,745.3103455,z,1,0.5816844999999375,None,01,001,2024-10-16_22h57.47.638,PSY310 Task4,2024.1.5,None,2024-10-16 22h58.08.227879 +0530,
150,v,,,,,21,2,86,1,745.3261173999999,,745.3112434,745.3261173999999,746.3260843,746.3260843,746.3260843,746.3260843,746.3260843,747.3260803000001,747.3260803000001,747.7770840999999,v,1,0.4497030999998515,None,01,001,2024-10-16_22h57.47.638,PSY310 Task4,2024.1.5,None,2024-10-16 22h58.08.227879 +0530,
150,v,,,,,21,3,87,1,747.7925912999999,,747.7778169000001,747.7925912999999,748.7926176999999,748.7926176999999,748.7926176999999,748.7926176999999,748.7926176999999,749.7925371000001,749.7925371000001,750.1269018,v,1,0.32612299999982497,None,01,001,2024-10-16_22h57.47.638,PSY310 Task4,2024.1.5,None,2024-10-16 22h58.08.227879 +0530,
-150,z,,,,,22,0,88,3,750.1425852,,750.127796,750.1425852,751.1424231000001,751.1424231000001,751.1424231000001,751.1424231000001,751.1424231000001,752.1422617999999,752.1422617999999,752.643325,z,1,0.4999790000001667,None,01,001,2024-10-16_22h57.47.638,PSY310 Task4,2024.1.5,None,2024-10-16 22h58.08.227879 +0530,
50,c,,,,,22,1,89,2,752.6590590000001,,752.6442287,752.6590590000001,753.6589968000001,753.6589968000001,753.6589968000001,753.6589968000001,753.6589968000001,754.6588876999999,754.6588876999999,755.1598386999999,c,1,0.49998090000008233,None,01,001,2024-10-16_22h57.47.638,PSY310 Task4,2024.1.5,None,2024-10-16 22h58.08.227879 +0530,
50,c,,,,,22,2,90,2,755.1753619000001,,755.1607222,755.1753619000001,756.1754622999999,756.1754622999999,756.1754622999999,756.1754622999999,756.1754622999999,757.1755146,757.1755146,757.8594859,c,1,0.6685946000000058,None,01,001,2024-10-16_22h57.47.638,PSY310 Task4,2024.1.5,None,2024-10-16 22h58.08.227879 +0530,
150,v,,,,,22,3,91,1,757.8755277,,757.8603800000001,757.8755277,758.8753678,758.8753678,758.8753678,758.8753678,758.8753678,759.8751287,759.8751287,760.5928309000001,v,1,0.7155700999999226,None,01,001,2024-10-16_22h57.47.638,PSY310 Task4,2024.1.5,None,2024-10-16 22h58.08.227879 +0530,
-150,z,,,,,23,0,92,3,760.6085751,,760.5937286000001,760.6085751,761.6083463,761.6083463,761.6083463,761.6083463,761.6083463,762.6082750999999,762.6082750999999,763.0758659999999,z,1,0.4621309999999994,None,01,001,2024-10-16_22h57.47.638,PSY310 Task4,2024.1.5,None,2024-10-16 22h58.08.227879 +0530,
-50,x,,,,,23,1,93,0,763.0917085000001,,763.0767688999999,763.0917085000001,764.0916201,764.0916201,764.0916201,764.0916201,764.0916201,765.0916748,765.0916748,765.5923964000001,x,1,0.4969306999998935,None,01,001,2024-10-16_22h57.47.638,PSY310 Task4,2024.1.5,None,2024-10-16 22h58.08.227879 +0530,
-150,z,,,,,23,2,94,3,765.6084530999999,,765.5932711,765.6084530999999,766.6083888999999,766.6083888999999,766.6083888999999,766.6083888999999,766.6083888999999,767.6082217000001,767.6082217000001,768.0591916999999,z,1,0.44185640000000603,None,01,001,2024-10-16_22h57.47.638,PSY310 Task4,2024.1.5,None,2024-10-16 22h58.08.227879 +0530,
-50,x,,,,,23,3,95,0,768.0745976999999,,768.0602659000001,768.0745976999999,769.0745727000001,769.0745727000001,769.0745727000001,769.0745727000001,769.0745727000001,770.0746945000001,770.0746945000001,771.2088043000001,x,1,1.1247459000001072,None,01,001,2024-10-16_22h57.47.638,PSY310 Task4,2024.1.5,None,2024-10-16 22h58.08.227879 +0530,
150,v,,,,,24,0,96,1,771.2243048,,771.2097676000001,771.2243048,772.2244776,772.2244776,772.2244776,772.2244776,772.2244776,773.2244594000001,773.2244594000001,774.3921249,v,1,1.1602166999998644,None,01,001,2024-10-16_22h57.47.638,PSY310 Task4,2024.1.5,None,2024-10-16 22h58.08.227879 +0530,
50,c,,,,,24,1,97,2,774.4076944999999,,774.3928880999999,774.4076944999999,775.4076050000001,775.4076050000001,775.4076050000001,775.4076050000001,775.4076050000001,776.4075617999999,776.4075617999999,777.0749731000001,c,1,0.6513187999998991,None,01,001,2024-10-16_22h57.47.638,PSY310 Task4,2024.1.5,None,2024-10-16 22h58.08.227879 +0530,
-50,x,,,,,24,2,98,0,777.0907451999999,,777.0758447000001,777.0907451999999,778.0909977000001,778.0909977000001,778.0909977000001,778.0909977000001,778.0909977000001,779.0907057,779.0907057,779.9415491,x,1,0.8369941000000836,None,01,001,2024-10-16_22h57.47.638,PSY310 Task4,2024.1.5,None,2024-10-16 22h58.08.227879 +0530,
150,v,,,,,24,3,99,1,779.9572152999999,,779.9425068999999,779.9572152999999,780.9572691000001,780.9572691000001,780.9572691000001,780.9572691000001,780.9572691000001,781.9572705,781.9572705,782.5414092999999,v,1,0.5767675999998119,None,01,001,2024-10-16_22h57.47.638,PSY310 Task4,2024.1.5,None,2024-10-16 22h58.08.227879 +0530,
50,c,,,,,25,0,100,2,782.5572729999999,,782.5423788,782.5572729999999,783.5570888,783.5570888,783.5570888,783.5570888,783.5570888,784.5571024999999,784.5571024999999,785.0078289,c,1,0.43577700000014374,None,01,001,2024-10-16_22h57.47.638,PSY310 Task4,2024.1.5,None,2024-10-16 22h58.08.227879 +0530,
-50,x,,,,,25,1,101,0,785.0236536,,785.0087074,785.0236536,786.0237703,786.0237703,786.0237703,786.0237703,786.0237703,787.0235253000001,787.0235253000001,787.5244046,x,1,0.4978302000001804,None,01,001,2024-10-16_22h57.47.638,PSY310 Task4,2024.1.5,None,2024-10-16 22h58.08.227879 +0530,
50,c,,,,,25,2,102,2,787.5400629999999,,787.5252811,787.5400629999999,788.5401707000001,788.5401707000001,788.5401707000001,788.5401707000001,788.5401707000001,789.5401371,789.5401371,790.0910515999999,c,1,0.540726000000177,None,01,001,2024-10-16_22h57.47.638,PSY310 Task4,2024.1.5,None,2024-10-16 22h58.08.227879 +0530,
50,c,,,,,25,3,103,2,790.1067370000001,,790.0919274,790.1067370000001,791.1067106,791.1067106,791.1067106,791.1067106,791.1067106,792.1065059,792.1065059,792.9407169000001,c,1,0.8242185000001427,None,01,001,2024-10-16_22h57.47.638,PSY310 Task4,2024.1.5,None,2024-10-16 22h58.08.227879 +0530,
50,c,,,,,26,0,104,2,792.9564717999999,,792.9417681,792.9564717999999,793.9565359000001,793.9565359000001,793.9565359000001,793.9565359000001,793.9565359000001,794.9564066,794.9564066,795.4405354,c,1,0.47085649999985435,None,01,001,2024-10-16_22h57.47.638,PSY310 Task4,2024.1.5,None,2024-10-16 22h58.08.227879 +0530,
-50,x,,,,,26,1,105,0,795.4562986999999,,795.4414188000001,795.4562986999999,796.4563123,796.4563123,796.4563123,796.4563123,796.4563123,797.4563499000001,797.4563499000001,798.3239116,x,1,0.8664432000000488,None,01,001,2024-10-16_22h57.47.638,PSY310 Task4,2024.1.5,None,2024-10-16 22h58.08.227879 +0530,
-150,z,,,,,26,2,106,3,798.3396381,,798.3247541000001,798.3396381,799.339422,799.339422,799.339422,799.339422,799.339422,800.3394009000001,800.3394009000001,800.9735338,z,1,0.6269021000000521,None,01,001,2024-10-16_22h57.47.638,PSY310 Task4,2024.1.5,None,2024-10-16 22h58.08.227879 +0530,
